accx,accy,accz,Total_Acceleration
0.8433239,-0.09248479,-0.05186726,0.8499640282697037
0.79628,-0.07572948,0.023792,0.8002267502433734
0.8297108,-0.08666805,-0.06305158,0.8366043654368167
0.9034426,-0.09875238,-0.15929,0.9226775537263407
0.9067014,-0.1462209,-0.1828256,0.936436426231984
0.8836901,-0.1269901,-0.1895419,0.9126668670394636
0.7584893,-0.1197232,-0.1112518,0.7758973036658717
0.6833625,-0.1941928,-0.09431749,0.7166525928914163
0.6580693,-0.26417,-0.117143,0.7187235038256993
0.6585311,-0.3118064,-0.1072529,0.7364710620972016
0.753824,-0.2813339,-0.1173631,0.8131257488893217
0.779625,-0.208763,-0.08327635,0.8113766580715287
0.7784684,-0.1250518,-0.06366274,0.7910145048898329
0.7536951,0.004370236,-0.01802132,0.7539231862074863
0.7208255,0.05851598,0.05147401,0.7250262719868091
0.9242014,-0.0391852,0.01852426,0.9252171938899253
1.29612,-0.314218,0.003730722,1.3336693459064886
1.584593,-0.62756,0.02510002,1.7045223789240787
1.579132,-0.6640027,0.02844671,1.7132911820064662
1.403985,-0.5278418,0.04412712,1.5005792377517873
1.384354,-0.499356,0.04721759,1.4724204266640042
1.483901,-0.4472957,0.04661844,1.550551160067775
1.583185,-0.2682714,0.04667322,1.6064316598436825
1.542409,-0.1699345,0.05587255,1.552747564614014
1.348868,-0.2166323,0.0901419,1.3691238062947046
1.163656,-0.2907751,0.135646,1.2070813072995579
1.021863,-0.3202749,0.1410298,1.0801247181816782
0.9992353,-0.242805,0.08827746,1.0320941636959011
0.9301019,-0.1092838,0.04569678,0.9376143605067162
0.8007806,-0.0729063,0.03294092,0.8047670483602669
0.8038894,-0.1393466,0.07442813,0.8192650297060267
0.7007968,-0.2089178,0.1384938,0.744273696086003
0.6781227,-0.2538994,0.1353956,0.7366459597900541
0.8291934,-0.2382606,0.1242074,0.8716405717557438
0.816593,-0.1636296,0.1321317,0.843242290086337
0.8359032,-0.1195418,0.1275519,0.8539870542994723
0.7702166,-0.06495477,0.1310087,0.7839744973766704
0.6105819,0.001642903,0.1344508,0.6252119427510302
0.7065597,-0.0149295,0.1330211,0.7191273271678319
0.7745713,-0.05261731,0.1115333,0.784327072785465
0.8074879,-0.07291848,0.08278517,0.8149890782972796
0.8978731,-0.1102889,0.0813074,0.9082679331901903
0.8882194,-0.122202,0.0454987,0.8977400308786782
0.9269844,-0.08843832,-0.03522216,0.9318594394235903
0.9313883,-0.08594044,-0.05743708,0.9371066869696374
0.8792413,-0.1874884,-0.0105396,0.8990707685874401
0.9013494,-0.3645731,0.02165971,0.9725293975820237
0.9203771,-0.4568605,0.01043307,1.0275818077478234
1.03043,-0.3451665,-0.04759441,1.087745891964432
1.208215,-0.2662936,-0.1464635,1.2458520475795711
1.305589,-0.3867953,-0.2261997,1.380340372988916
1.354931,-0.4263713,-0.2509039,1.442422707551396
1.364506,-0.2803363,-0.2015259,1.4075076388796262
1.347969,-0.178056,-0.07691189,1.3618516082600087
1.353215,-0.234667,-0.008529039,1.3734380880186277
1.444761,-0.3214757,-0.1061866,1.483899109384142
1.596546,-0.3170612,-0.2385668,1.6451142977689057
1.585733,-0.2457855,-0.2250512,1.6203727046333167
1.253942,-0.08181408,-0.09340557,1.260074872202946
0.7854149,0.03593224,0.007607346,0.7862732112482221
0.587688,-0.07321019,-0.01922562,0.5925424387571074
0.6637375,-0.209895,-0.1115501,0.7050154641858999
0.7333841,-0.2730061,-0.1562385,0.7979943844741453
0.8743384,-0.3048085,-0.1911011,0.9454604644341401
1.041748,-0.2562255,-0.2116911,1.09348229257426
1.025515,-0.1990935,-0.1908663,1.0619553575564935
0.9359391,-0.09047709,-0.1820657,0.957766162400911
0.7970564,0.06209943,-0.1147836,0.807669808038065
0.6287271,0.03727538,-0.007015795,0.6298701783764941
0.582294,-0.08897439,0.04212807,0.5905569564350225
0.6035545,-0.1652583,0.02433246,0.6262430908192054
0.7043048,-0.2190958,-0.04604221,0.7390318707487277
0.8933218,-0.206256,-0.06000262,0.9187848988191438
0.9489981,-0.1311669,-0.03841815,0.9587899163574064
0.8286414,-0.02748784,-0.02831712,0.8295806232229149
0.7294509,0.04114668,-0.006263175,0.7306373191583586
0.7323081,-0.0554244,-0.07905981,0.7386457005887235
0.7826389,-0.2200778,-0.1839873,0.8335521653785922
0.9672064,-0.3806206,-0.1880013,1.0562692602490191
1.335379,-0.5845104,-0.05886367,1.4588880741835644
1.591924,-0.6556973,0.1087647,1.725106005719469
1.571035,-0.515309,0.1188902,1.6576577500684633
1.525958,-0.3903141,0.09901238,1.5781940203333917
1.58464,-0.4302761,0.1404053,1.648009435682727
1.658528,-0.4585743,0.1243602,1.725245192646115
1.713021,-0.3833639,0.1236803,1.7597459029281186
1.595229,-0.3376539,0.135279,1.6361742347522803
1.33454,-0.2616466,0.1148484,1.364787935861876
1.176746,-0.2402545,0.107119,1.2057893072370687
1.007742,-0.2918691,0.08156973,1.052323681645093
0.7712248,-0.1664228,0.05687508,0.7910240294832304
0.6157294,-0.0774754,0.04526627,0.6222332093590255
0.6245627,-0.1307016,0.04785108,0.6398837396988741
0.8045773,-0.1790884,0.1098765,0.8315588565712593
0.8572968,-0.2608623,0.1648375,0.9111412317845021
0.8081876,-0.246352,0.1647596,0.8608148642361608
0.8142707,-0.1947492,0.1567477,0.8517827570656852
0.6757251,-0.1613308,0.1597188,0.7128408888890213
0.6048192,-0.04674867,0.1625198,0.6280162324553793
0.6843483,-0.008668146,0.1452375,0.6996439550758781
0.718717,0.004449164,0.1262813,0.7297402879648273
0.7760931,0.009948707,0.08595588,0.7809019720458875
0.8230193,-0.09530213,-0.007287713,0.8285507678566216
0.8439929,-0.118024,-0.0705747,0.8551224871949632
0.8307109,-0.09624051,-0.06730564,0.8389713250878601
0.8683479,-0.1645315,-0.04650838,0.8850207451449283
0.972496,-0.2193858,-0.02454203,0.9972366371599877
0.9783576,-0.2368844,0.01632304,1.0067592830840755
1.023112,-0.2210893,0.08139504,1.049887515715418
1.072784,-0.2156925,0.1140914,1.1001843539908254
1.07645,-0.2647785,0.04650147,1.1095109928587508
1.152947,-0.2915976,-0.1094166,1.1942729744452563
1.210316,-0.2892849,-0.2509629,1.2694616774051983
1.268677,-0.2807171,-0.2740299,1.3279442031408624
1.319055,-0.2555044,-0.1609421,1.3531780928602009
1.407541,-0.1898846,-0.04375388,1.4209652458850688
1.634179,-0.1503292,-0.08599138,1.6433302741226257
1.778228,-0.2453266,-0.251953,1.812666619889206
1.558159,-0.2528117,-0.32993,1.6126459716372623
1.093095,-0.1001832,-0.1001107,1.1022320558039174
0.9629049,-0.07587508,0.1481601,0.9771869265606383
1.175891,-0.1624616,-0.06928147,1.1890808792680676
1.189957,-0.243761,-0.2685026,1.2439898444829685
0.9294621,-0.2709219,-0.07110386,0.9707493137483639
0.6881477,-0.2196827,-0.03204254,0.7230729355080521
0.778298,-0.1980973,-0.1274534,0.8131633822565119
0.9083508,-0.1317628,-0.08289299,0.9215931093034605
0.8180805,-0.0483739,-0.08302654,0.8237045253158632
0.8564282,-0.05822857,-0.07391502,0.8615818349414555
0.8762861,-0.04032887,-0.06717124,0.8797816332998913
0.8305623,-0.03880949,-0.1280413,0.8412695674996453
0.9115191,-0.05060611,-0.1408389,0.9237227093599855
0.9144142,-0.02571889,-0.1420938,0.9257458822284396
0.9321065,-0.07419017,-0.1296363,0.9439980290999388
0.9282212,-0.1433509,-0.1069944,0.9452998880205212
0.8108542,-0.1920385,-0.08895888,0.8380196903836713
0.7928566,-0.1984382,-0.05813244,0.8193770121031916
0.7728509,-0.1648123,-0.0882151,0.7951374168847232
0.7604953,-0.1621997,-0.09772001,0.7837161758931482
0.8651404,-0.09693773,-0.04186085,0.8715601906767172
0.9719527,0.008362098,-0.00451751,0.9719991685268314
0.9638004,0.08764603,-0.0007244706,0.9677776410274063
0.803859,0.1320489,-0.05718381,0.8166371238183616
0.6912408,-0.001417338,-0.1474587,0.7067955295821672
0.7381021,-0.2758167,-0.2264827,0.8198560699431272
0.9561227,-0.5816008,-0.2228676,1.1410959973401404
1.286985,-0.8645178,-0.1127904,1.5544912643929525
1.455456,-0.9108779,0.0165645,1.717068752061099
1.495591,-0.6190228,0.122253,1.623245964790869
1.53685,-0.2375444,0.1079384,1.5588412243284817
1.495073,-0.08996168,0.05040957,1.4986252046275639
1.414374,-0.08867628,0.06128606,1.4184756873704116
1.348509,-0.006258725,0.01463023,1.3486028838577644
1.248293,0.04820192,0.02723608,1.2495201651011691
1.135372,0.02876819,0.09554799,1.139748483452782
1.069978,-0.05664854,0.04842471,1.0725702448356078
1.012183,-0.2185686,0.04694659,1.036576403699982
0.976117,-0.2513294,0.04310531,1.0088750828242097
0.9591475,-0.2002143,-0.04806177,0.9809992999061075
0.8749568,-0.2021863,-0.0669682,0.900507324559423
0.8163898,-0.1653225,-0.01615354,0.8331175015595469
0.8007588,-0.169714,0.0606883,0.8207926457579466
0.7902079,-0.2228906,0.0769764,0.8246418076642307
0.8141744,-0.2126765,0.01401776,0.8416102095762785
0.7714465,-0.1843464,-0.02377102,0.7935227526335022
0.7291907,-0.1639797,-0.0449902,0.7487539896886158
0.7704425,-0.2195807,-0.02666324,0.8015661282676793
0.8279004,-0.2931576,-0.0006445295,0.8782715218975259
0.9026313,-0.2173618,0.006506588,0.9284566503215601
0.8834037,-0.1415455,0.07896969,0.8981500084521717
0.7699927,-0.1507082,0.1536111,0.799498648931779
0.7219139,-0.1258918,0.1516261,0.7483307413982537
0.7567728,-0.1147823,0.08117351,0.7697201997731709
0.8872759,-0.1656727,-0.0190968,0.9028126350557684
1.122814,-0.317048,-0.1221341,1.1730931127931874
1.437708,-0.5361966,-0.2323662,1.5519359323174395
1.603482,-0.5449499,-0.2627902,1.7138213463048153
1.384381,-0.357312,-0.1334812,1.4359665209392731
1.168435,-0.2770331,0.06038626,1.2023452865618085
1.28698,-0.3086,0.06183024,1.3249054528450164
1.510978,-0.3733414,-0.1746814,1.5661902531122838
1.634017,-0.4177099,-0.3063314,1.7141563649425247
1.398295,-0.3169721,-0.1322193,1.4398549102239087
0.924999,-0.1552056,0.0579388,0.9397174217911467
0.837382,-0.09439299,-0.04277098,0.8437701151470703
0.9812151,-0.1554422,-0.1772173,1.009133946227229
0.9471917,-0.233685,-0.1673146,0.9898358304017136
0.9173289,-0.2256007,-0.15597,0.9574521541652617
0.8845475,-0.1635232,-0.05356288,0.901128791465673
0.8320846,-0.09353816,-0.02970339,0.8378522902700914
0.8547098,-0.08525171,-0.1309136,0.8688699942677984
0.8453193,-0.1031822,-0.1194799,0.8599341439048341
0.8519296,-0.07679296,-0.1517151,0.8687339487033596
0.9200274,-0.1212347,-0.1588331,0.9414755561831969
0.9844059,-0.1586269,-0.1253425,1.004951845445676
0.9837479,-0.1208928,-0.1702479,1.005663635268105
0.8975468,-0.1145957,-0.131062,0.914275494855205
0.8298952,-0.1014081,-0.1250882,0.8453737064209473
0.8039765,-0.1462425,-0.1311082,0.8276197444876119
0.8084298,-0.241924,-0.07957177,0.8475952040242871
0.7929711,-0.2370365,-0.06907713,0.8305185835708295
0.7172812,-0.1613807,-0.01089412,0.7352922766196476
0.7087946,-0.03643614,-0.02031616,0.7100212135171775
0.8008287,0.08299465,-0.06920743,0.8080868684983795
0.9372886,0.1000497,-0.05824255,0.9444109575764952
0.9958769,0.04113117,-0.1051336,1.0022552803293874
0.9005652,-0.03265773,-0.104162,0.9071570586308596
0.8430627,-0.07377066,-0.0564323,0.848163563760797
0.8851492,-0.10022,-0.04674266,0.8920302858785208
0.9097015,-0.1361736,-0.07165447,0.9226236673260615
0.9594217,-0.2252032,-0.1585368,0.9981685211803516
1.139201,-0.4876172,-0.1931163,1.2541305185117415
1.406181,-0.8342387,-0.1592836,1.6427630622118485
1.56118,-0.9312952,-0.1212342,1.821892278152767
1.566238,-0.7495355,-0.03518471,1.7367046099501304
1.621439,-0.6258307,0.04277596,1.7385506258195105
1.696273,-0.5176553,-0.002052965,1.773503119481999
1.598816,-0.1779361,-0.06737549,1.6100972996039555
1.418842,0.06840104,0.02531736,1.4207154155405124
1.216346,-0.02425107,0.1239759,1.2228882736754632
0.9698019,-0.103023,0.1067611,0.9810848058378133
0.8647247,-0.1132398,0.06939718,0.8748645767695035
0.8273894,-0.2388357,0.0154362,0.8613094607034629
0.6844915,-0.2672156,0.04405486,0.7361206566489149
0.5887763,-0.2030394,0.1270577,0.6356305440453126
0.5792127,-0.2265953,0.1398958,0.6374979346484348
0.643509,-0.2169444,0.1661874,0.6991330042925452
0.7905435,-0.2045931,0.1644179,0.8329769551435801
0.8726405,-0.2011473,0.1456118,0.907284120238407
0.8796018,-0.1192407,0.158204,0.9016352792097978
0.8290005,-0.05282181,0.1363837,0.8418031160773973
0.6878819,0.01538764,0.1443143,0.7030255365183186
0.5887713,0.05605598,0.1582986,0.6122518790166432
0.6518948,-0.04357831,0.1401597,0.6682145171077819
0.8194028,-0.2080949,0.08544148,0.8497203555043508
0.9481366,-0.2840154,-0.04228082,0.9906641345262239
1.0034,-0.2192974,-0.1314157,1.035457867734487
0.9984395,-0.1583118,-0.1523644,1.0223301675911016
0.9170587,-0.1512601,-0.07880454,0.9327842369070736
0.8525727,-0.1400403,0.08822241,0.8684898894262316
0.9026414,-0.1458281,0.1277422,0.9232255420017419
1.031965,-0.1143052,0.04373747,1.0391970006952682
1.124753,-0.08540182,-0.003100948,1.1279948571455505
1.149045,-0.1648635,-0.04665592,1.1617491814192498
1.129032,-0.2790105,-0.1812484,1.177034875709641
1.107755,-0.3175024,-0.3406181,1.2016445414840322
1.200228,-0.2544262,-0.3080586,1.2649822308097456
1.3969,-0.1699141,-0.1344884,1.413607987071865
1.679401,-0.1343527,-0.07496787,1.6864336774183049
1.859683,-0.1584074,-0.1881857,1.875880492608271
1.598163,-0.2577232,-0.2685441,1.6409333185818522
1.153368,-0.34523,-0.01482463,1.2040187980171393
0.9636382,-0.342182,0.2246492,1.0469739083109377
1.043797,-0.3213215,-0.04340136,1.0929974206836446
1.120243,-0.322614,-0.292695,1.20195446464082
0.972284,-0.287495,-0.1834451,1.0303599644760126
0.8036588,-0.1823561,-0.1141184,0.8319520558561112
0.7198257,-0.06957277,-0.1015615,0.7302767605423391
0.7451807,-0.04982643,-0.08915358,0.7521471329506291
0.9350188,-0.1061628,-0.1422526,0.9517176570097038
0.9726514,-0.1227375,-0.1113974,0.9866735126448719
0.8662217,-0.08673359,-0.029997,0.8710697843423213
0.7863062,-0.0502631,0.01403107,0.7880359701849877
0.723126,-0.01430797,0.01219926,0.7233704112182558
0.7999571,-0.009330093,-0.1055716,0.8069471948041944
0.853419,-0.0410766,-0.2026173,0.8781030958195343
0.8244042,-0.08612812,-0.1729106,0.8467339686257629
0.7368908,-0.1545964,-0.08040679,0.7572142034429253
0.5512937,-0.1838289,0.03346041,0.5820974206885546
0.5858158,-0.1596161,0.04412114,0.6087726389250337
0.7625155,-0.1454893,-0.04091046,0.777348499639738
0.8913916,-0.1119544,-0.1175274,0.9060493706088426
0.9870693,-0.07577979,-0.1638088,1.003434951819187
0.8894645,-0.1308566,-0.1220374,0.9072836786378172
0.8612873,-0.3365144,-0.02433358,0.9250134472883442
1.120803,-0.6507319,0.06476644,1.2976309422316052
1.505961,-0.7555349,0.09837162,1.6877287976035826
1.827086,-0.4914483,0.09729692,1.8945266885452885
1.850251,-0.2753199,0.1857857,1.8798260921323282
1.840061,-0.2726876,0.2232718,1.8735082886365888
1.987404,-0.171892,0.03446321,1.9951213576430642
1.866169,-0.0479245,-0.1140343,1.8702639695609118
1.36427,-0.08718742,0.06738672,1.3687129900525585
0.8274172,-0.09738546,0.292778,0.8830753693537442
0.7135838,-0.07161215,0.2264328,0.7520651252158304
0.8467354,-0.1659009,0.125667,0.8719381521203038
0.6513119,-0.2347313,0.08588045,0.6976255628727366
0.5629001,-0.1924796,0.003447578,0.5949090727079527
0.6896223,-0.1585192,0.05070448,0.709421029937794
0.5411084,-0.1285278,0.09879813,0.564870574923935
0.5352214,-0.1053377,0.09587,0.5538492890301927
0.618387,-0.1211643,0.1713808,0.6530349515700749
0.5527624,-0.1223281,0.1435732,0.5840579583068876
0.6686989,-0.1182959,0.1013107,0.6865974051454826
0.7715515,-0.134517,0.09703353,0.7891780828086338
0.8954451,-0.1582731,-0.04152363,0.9102727685402859
1.007624,-0.1849539,-0.1350261,1.0333180140607343
0.8660638,-0.1923328,-0.04876907,0.888502579520704
0.8109722,-0.2026089,0.08294341,0.8400035028465526
0.8039979,-0.2475271,0.09476692,0.8465595416538086
0.7623114,-0.2711682,0.03965226,0.8100760242003879
0.8761939,-0.3041957,0.003305947,0.9275029399313335
1.11296,-0.4560652,-0.1833735,1.21667632045392
1.45175,-0.5811794,-0.4303792,1.621904378586173
1.652055,-0.4738017,-0.4330389,1.7723702950741136
1.629729,-0.2200867,-0.1563469,1.6519379897857849
1.615114,0.04719864,0.1439746,1.6222051750808246
1.625343,0.2316681,0.1767239,1.6512544664702107
1.612617,0.1804568,-5.154304e-05,1.6226824236466988
1.50805,-0.03865963,-0.1093895,1.5125063412105042
1.264929,-0.2298425,-0.05087683,1.2866473493844766
1.068136,-0.2913884,-0.02761595,1.107512688344907
1.094196,-0.1832305,-0.1307646,1.1171113118930494
1.101051,-0.08968575,-0.1920437,1.1212660795117957
0.8915856,-0.05861855,-0.2099641,0.9178485386055112
0.7279592,0.00235624,-0.1697365,0.7474895505382183
0.7145888,-0.05090807,-0.1004375,0.7234061625966528
0.8162674,-0.09566595,-0.1331002,0.8325623733584184
0.925483,-0.04609807,-0.1644544,0.9411105487805801
0.8528745,-0.03479905,-0.1704909,0.8704441588143161
0.7910562,0.01919528,-0.1620634,0.8077146253178027
0.798341,0.01318158,-0.1117979,0.8062387219531858
0.7880006,-0.0551516,-0.120711,0.7990981104369601
0.8372816,-0.06937753,-0.1383787,0.851470718217104
0.8274387,-0.1164203,-0.1474226,0.8484939077568795
0.8230208,-0.1161587,-0.1939382,0.8535034307122439
0.8958245,-0.09680054,-0.1913841,0.9211404632722154
0.9079005,-0.1016573,-0.1694226,0.929150979084831
0.9026629,-0.03167749,-0.1310073,0.912670086648182
0.8378182,0.01451701,0.006862846,0.8379720630700046
0.7396025,-0.007491359,0.1385723,0.7525093094395623
0.7233561,-0.07613936,0.1260779,0.7381984058617505
0.6883957,-0.2417886,-0.0128401,0.7297364147666334
0.6618741,-0.5210209,-0.188862,0.8632548624430795
0.8267748,-0.7985452,-0.2706437,1.1808806115385966
1.204585,-0.9198537,-0.1823414,1.5265661589930029
1.518581,-0.8869748,-0.06736745,1.7599292379853066
1.599332,-0.5955579,-0.01809245,1.706715967940598
1.706758,-0.1104644,-0.00948152,1.710355271121433
1.902109,0.05845315,-0.1606553,1.9097763073313097
1.897635,-0.1289912,-0.3214544,1.9289868465548956
1.644081,-0.1998618,-0.2046978,1.6687864641664252
1.327616,-0.1559894,-0.01621375,1.3368469703213686
1.096782,-0.2133773,0.05402547,1.1186506957437656
0.9940821,-0.2225877,0.066268,1.0208506029560347
0.9083455,-0.2080716,0.03563749,0.9325531452900205
0.8132873,-0.2599285,0.02853239,0.8542910246120183
0.7846118,-0.1795293,-0.007352781,0.8049226730849144
0.7592015,-0.09863285,-0.07572134,0.7693172804719571
0.7496785,-0.182673,-0.0006633352,0.7716137105474719
0.7620187,-0.264433,0.1150057,0.8147537184150682
0.7549846,-0.3033223,0.1573591,0.828714697750233
0.8026776,-0.2624161,0.1679977,0.8610323839939239
0.823589,-0.1262949,0.08820394,0.8378718146104055
0.7656479,-0.0141146,0.02181331,0.766088604014396
0.7068935,0.002944738,0.07261644,0.7106196163788417
0.6760142,-0.05831708,0.1180168,0.6887118740834998
0.6927649,-0.08132072,0.1130745,0.7066272770871349
0.6982054,-0.08240717,0.08498796,0.7081699482479685
0.7391425,-0.1245996,0.008245244,0.7496163549943595
0.8361212,-0.1278832,-0.09661337,0.8513441825692103
0.8578612,-0.1343285,-0.1168871,0.8761464366897237
0.8346835,-0.1869368,-0.04880309,0.8567518041767045
0.8315089,-0.2132774,0.005917262,0.8584458713975777
0.8504618,-0.225498,0.06053746,0.8819293652705367
0.8726332,-0.258317,0.1008518,0.9156350035873901
0.9286783,-0.3101348,0.0576464,0.9807905416014624
1.085831,-0.356817,-0.04251563,1.1437459992691983
1.239515,-0.3541683,-0.1495513,1.297766624351844
1.384098,-0.3284287,-0.2658775,1.4471639608537588
1.561345,-0.3245108,-0.3802444,1.6394179674729077
1.505691,-0.2985291,-0.3270542,1.5694551477393197
1.204779,-0.2471614,-0.05940992,1.2313044851235484
1.069684,-0.2416504,0.1217809,1.1033808786094539
1.253095,-0.3205499,0.02787718,1.2937451273646454
1.638426,-0.4392393,-0.214846,1.7098332444587951
1.838205,-0.426106,-0.3458643,1.9183811037631417
1.390105,-0.2629078,-0.1705085,1.4249861651602411
0.7970192,-0.07825038,0.09289237,0.8062206394920695
0.7834865,0.04281601,0.08555484,0.789305984420488
0.9728327,-0.07683928,-0.1112395,0.9821822455636522
0.9410575,-0.2577597,-0.2156626,0.9992695523676782
0.8672984,-0.2350232,-0.1580836,0.9123775774150524
0.8217154,-0.2078732,-0.0923696,0.8526192637276969
0.8246904,-0.1525441,-0.1537744,0.8526608495716982
0.881409,-0.04148139,-0.1889993,0.9023986183487994
0.8660217,-0.04962289,-0.1268406,0.8766667290887695
0.8573432,-0.09732129,-0.06460062,0.8652641424315979
0.8585228,-0.1528919,0.03366464,0.8726801471282475
0.7882293,-0.1661326,0.01256317,0.8056446508242321
0.7870942,-0.1139137,-0.1281018,0.8055455802650586
0.8485008,-0.1032866,-0.1823873,0.8740062108140251
0.8803319,-0.1084817,-0.2349995,0.917593209648344
0.8009301,-0.1547232,-0.158202,0.830936920896075
0.6580701,-0.2002411,0.02017322,0.6881567506378096
0.6917174,-0.1597071,0.02267958,0.7102771871615662
0.8208814,-0.08869296,-0.04203578,0.8267283234652905
0.9108414,-0.01306194,-0.1369407,0.9211706820926368
0.9308408,-0.009457018,-0.1790235,0.9479469624859518
0.8919133,-0.1437721,-0.09225593,0.9081249407848376
1.008307,-0.3820241,-0.00920291,1.0782903657096627
1.250766,-0.5613692,0.113888,1.375689442428283
1.494468,-0.5028101,0.1516093,1.5840574419927138
1.621212,-0.3744969,0.0629664,1.6650949055782287
1.547121,-0.3498896,0.06083092,1.5873583469579913
1.576696,-0.3388177,0.1332905,1.6181885142465757
1.661115,-0.2994165,0.1894849,1.6984869181201425
1.526668,-0.2212142,0.1232186,1.5475250330419859
1.314004,-0.1783693,0.04361796,1.3267722659269945
1.04829,-0.2112327,0.1082264,1.0748228371718986
0.8131929,-0.1739626,0.1283931,0.8414454628416389
0.7778456,-0.1255214,0.08876649,0.7928927348918264
0.7889359,-0.1354319,0.09620388,0.8062362187184811
0.7758363,-0.1440043,0.08568814,0.7937264391166768
0.7767632,-0.1974083,0.08188264,0.805627626460575
0.7534561,-0.234774,0.1167224,0.7977712982835181
0.740156,-0.2485757,0.1452381,0.7941756031622351
0.7878855,-0.2181575,0.1460716,0.8304776747409047
0.8558408,-0.1053182,0.1420047,0.8739111699812344
0.856911,-0.1126807,0.1505421,0.8773005904169334
0.8220283,-0.1541073,0.135715,0.847288703535684
0.8041103,-0.1232293,0.09359831,0.8188647498698647
0.7650946,-0.1457337,0.02219862,0.7791667581427959
0.7526341,-0.1283036,-0.05615866,0.7655545031862627
0.7967872,-0.109148,-0.05876702,0.8063725507651661
0.835122,-0.1572053,-0.02510264,0.8501602224093172
0.867629,-0.1930472,0.009337755,0.8888950988374725
0.9071814,-0.2221005,0.06085538,0.9359541131279644
0.9312372,-0.2028726,0.04203086,0.9540055595681504
0.9268875,-0.1654333,0.006830431,0.9415600189009651
0.9331384,-0.1063972,0.05028269,0.9405296309186841
0.958747,-0.01021873,0.07717662,0.9619025226739129
0.9617194,-0.07447602,0.05353847,0.9660834589523523
1.024127,-0.3062692,-0.06744463,1.0710675576794757
1.173855,-0.4990145,-0.2928389,1.308703806668438
1.253787,-0.5074236,-0.371973,1.4027916680444605
1.247002,-0.3602053,-0.2614992,1.3240633208999975
1.269856,-0.1911877,-0.1222398,1.2899726997387697
1.294402,-0.02831782,0.01233445,1.294770472010524
1.358768,-0.05606283,-0.04952974,1.36082574706539
1.676464,-0.2458112,-0.3476622,1.7296889011178511
1.921682,-0.2530085,-0.4543542,1.990807059775982
1.51657,-0.1989263,-0.1274722,1.5348633162286895
1.005269,-0.1100936,0.2230164,1.0355784266731902
1.067154,0.02275651,0.08592345,1.0708493627598994
1.093182,-0.08850478,-0.1557888,1.107768085572196
0.805069,-0.1951454,-0.1084921,0.8354569753521542
0.7317682,-0.1845294,-0.1293128,0.7656746033658423
0.7604393,-0.2232331,-0.1178339,0.8012401474647349
0.7389646,-0.2029307,-0.07660932,0.7701418940471375
0.8261285,-0.2099801,-0.1918676,0.8737237073800963
0.8856618,-0.2193209,-0.143437,0.9236193231656915
0.8852889,-0.1692608,-0.1183317,0.9090588793388139
0.8323205,-0.1215978,-0.1379127,0.852386856131874
0.7636206,-0.0261711,-0.05949404,0.7663816855947769
0.788518,0.00475058,-0.1028532,0.7952119120615438
0.792453,-0.0336907,-0.06385715,0.7957352298859292
0.7880337,-0.08112587,-0.04535253,0.7934956654552989
0.8117535,-0.1782983,-0.0947033,0.8364823629796566
0.838387,-0.2272202,-0.03657848,0.8694019589672837
0.9128179,-0.2025358,-0.07336201,0.9378908536462491
0.9355839,-0.1451171,-0.05979719,0.9486579523640309
0.9087392,-0.07177334,-0.01442753,0.9116833329469703
0.904718,-0.04639501,-0.04321526,0.9069369962537462
0.899439,-0.07353493,-0.05217224,0.9039468144076412
0.920831,-0.1603698,-0.1166645,0.9419441644138414
1.02257,-0.4182203,-0.06511056,1.1067054753888244
1.223048,-0.7131224,0.01700296,1.4158668964046448
1.397615,-0.6837899,-0.003934035,1.555927952123231
1.439116,-0.4340435,0.0520057,1.504045615724716
1.425561,-0.2371356,0.07154825,1.4469196970068596
1.434614,-0.1205505,0.06688853,1.4412230318350492
1.478017,-0.1817127,0.1549732,1.4971875134225938
1.533733,-0.2967907,0.2048281,1.5755558338075804
1.540174,-0.3114016,0.1118175,1.5753126864419045
1.420573,-0.3001603,-0.01263539,1.4519929432010137
1.122939,-0.2026274,0.008446296,1.1411052540707538
0.7159506,-0.1191418,0.03377258,0.7265814595125976
0.4808567,-0.111554,0.01641445,0.49389968112936916
0.5321186,-0.09267486,0.1025159,0.5497711741213699
0.5999518,-0.1606518,0.1521605,0.6394560039023248
0.5975751,-0.2181421,0.1257594,0.6484577107420191
0.5828138,-0.2134132,0.09895299,0.628497266210936
0.5067121,-0.202125,0.05673976,0.5484806908873525
0.4971163,-0.1528701,0.06771318,0.5244797021290838
0.6280197,-0.1747394,0.06608796,0.6552176889839068
0.8142045,-0.1868293,-0.0368428,0.8361767439187603
0.9650457,-0.1629933,-0.1445493,0.9893303386957614
0.9620341,-0.1842902,-0.1505258,0.9910249763979161
0.8503896,-0.1425298,-0.01623239,0.8624040272177027
0.7774036,-0.1245921,0.1475565,0.8010321275502126
0.8520407,-0.1737066,0.1952299,0.8912138077891635
1.010032,-0.2262462,0.1302889,1.0432292085163501
1.111315,-0.3045891,0.02121622,1.1524954130298735
1.279574,-0.3591919,-0.1764894,1.3407001718557248
1.508228,-0.3634804,-0.4018025,1.6025963154127147
1.61407,-0.2817896,-0.3029196,1.6662495694319983
1.580113,-0.1157286,0.008933843,1.5843705422588836
1.485317,0.05127077,0.1161082,1.4907301554783927
1.485597,0.06409809,0.1032188,1.4905573226897677
1.519407,-0.08514455,0.05453386,1.5227676014186151
1.497945,-0.1311248,0.02024466,1.5038094235835058
1.400095,-0.09696751,0.04080059,1.4040418067724865
1.053616,-0.1001722,-0.01664459,1.0584980810020908
0.771644,-0.09705374,-0.01751314,0.777920690852639
0.8296357,-0.1630086,-0.04685882,0.8467956940137582
0.8455877,-0.267206,-0.1914157,0.9072252063483356
0.769106,-0.3298061,-0.1970277,0.8597185687191478
0.8162831,-0.3164735,-0.1639437,0.8907025947630051
0.8362026,-0.2769849,-0.1355997,0.891259054211995
0.8124396,-0.2416125,-0.08183846,0.8515469671953401
0.8704863,-0.09321223,-0.1127123,0.8826884959489123
0.8494599,0.00574416,-0.124564,0.8585635137705979
0.8047901,0.01219304,-0.09229559,0.8101569299931339
0.8388215,0.06087762,-0.05744215,0.8429870663751234
0.7880642,-0.002035201,-0.04244497,0.7892090349476818
0.7624785,-0.1082999,-0.06837141,0.7731603850480494
0.7781914,-0.1549472,-0.07802813,0.797294725238476
0.7723105,-0.2000913,-0.06449852,0.800412453568865
0.8235306,-0.18511,-0.03629047,0.8448581889578752
0.8300749,-0.1467089,-0.02185085,0.8432231617993794
0.8357344,-0.08355996,-0.01783504,0.8400906754097223
0.8581637,-0.05601699,-0.02775869,0.8604379024873708
0.8947983,-0.2247217,-0.0499117,0.9239345311929141
1.085894,-0.4663445,-0.0009114399,1.1817968533715686
1.337522,-0.5916547,0.05336629,1.4635123318320398
1.516819,-0.5557769,0.05491791,1.616367476217391
1.528527,-0.3821612,0.08672367,1.5779616495506819
1.468676,-0.2130918,0.1869692,1.4957856764763728
1.518563,-0.2134266,0.2514995,1.5539744196919105
1.543557,-0.2454402,0.1103755,1.5668413624312099
1.508245,-0.1682411,-0.03951462,1.5181137812917562
1.356858,-0.1808974,0.05762184,1.3700758292648423
1.020912,-0.2247394,0.1675072,1.0586915375633263
0.810045,-0.2066074,0.1571313,0.8506172847993685
0.7908281,-0.2422381,0.1380974,0.8385459276199366
0.7907735,-0.1887438,0.08193361,0.8171046853300512
0.8064426,-0.1227692,0.06327484,0.818184361217217
0.7860454,-0.1503672,0.1019368,0.806764387470865
0.7409883,-0.1380916,0.09336768,0.7595067309748035
0.713976,-0.1473003,0.1241508,0.7395083015739108
0.6935108,-0.1324439,0.1432804,0.7204359023452468
0.7135998,-0.101677,0.07589783,0.7247919477255172
0.7344572,-0.1350177,0.04973843,0.7484190466336322
0.8006683,-0.1689089,0.04411897,0.8194793631556324
0.9618619,-0.2322083,-0.009108411,0.9895362410803583
1.063966,-0.2376753,-0.08591023,1.0935692776430503
1.016686,-0.1676809,-0.08591852,1.03399675961765
0.8644105,-0.1113274,-0.01826234,0.8717412549393803
0.7179467,-0.03425724,-0.007994098,0.7188079911465518
0.6434473,0.01504428,0.04316264,0.6450688116238282
0.6349766,0.01147892,0.1342104,0.6491066781508925
0.7550693,-0.09901726,0.1352664,0.773453983472422
1.025622,-0.32333,0.01253397,1.0754533351977487
1.347914,-0.4842707,-0.2230274,1.4495280209175847
1.529322,-0.5327247,-0.3120642,1.6492439027007892
1.454682,-0.4222073,-0.1532677,1.52244859130303
1.252074,-0.1702983,0.09489239,1.267160360072395
1.189044,-0.05164789,0.236629,1.2134605152696367
1.471736,-0.1254928,-0.05446597,1.4780804573621427
1.750411,-0.2018683,-0.3795089,1.8024196194685354
1.460302,-0.214963,-0.1269751,1.4814903639892532
1.001071,-0.1674592,0.09981841,1.0198771718597137
0.9593902,-0.1081551,-0.06976021,0.9679842810765544
1.001217,-0.1530107,-0.1512022,1.0240653595783475
0.9068936,-0.2531669,-0.2079944,0.9642671576943446
0.8179778,-0.2883013,-0.2243585,0.8958471172006861
0.7818933,-0.2854255,-0.09142116,0.8373665130221567
0.8661272,-0.2350254,-0.1530934,0.9104124638583108
0.8885924,-0.1602613,-0.1787952,0.9204606787682404
0.8541226,-0.1251875,-0.08797713,0.8677195983669188
0.8890512,-0.06408623,-0.1396385,0.9022294562799992
0.8654801,-0.04492525,-0.1019618,0.8726226505442157
0.8707098,-0.06836782,-0.05437209,0.8750805898879032
0.8729285,-0.01727615,-0.04368242,0.8741915037839987
0.8418815,-0.02242736,0.003321521,0.8421867245573116
1.029683,-0.5410242,0.05242612,1.1643464963372776
1.250712,-0.5683112,-0.1355071,1.3804420672885371
1.742909,-0.5838251,-0.4603824,1.8948708356774004
1.975866,-0.6010403,-0.6068273,2.1525648106864006
1.609719,-0.3669093,-0.2713709,1.6731586472161866
1.389686,-0.06266814,0.1127904,1.3956633364458708
1.532716,0.01683563,0.0805039,1.53492105758202
1.526179,-0.1026374,-0.03985137,1.5301453877362885
1.361782,-0.2856415,-0.02377667,1.3916201392918037
1.213279,-0.3828169,-0.02765454,1.272540562948475
1.04537,-0.3691985,-0.02650721,1.1089673581689563
0.981089,-0.2845386,-0.08548815,1.0250883203906784
0.9412867,-0.1725211,-0.191072,0.9758548512591921
0.7890872,-0.1264311,-0.1842926,0.8201263284798325
0.7808002,-0.1267942,-0.1609692,0.8072402398433319
0.8232346,-0.1555854,-0.1455762,0.8503613663241999
0.775091,-0.1885732,-0.08613617,0.802337428904765
0.7986128,-0.1935364,-0.05841906,0.8238030887415291
0.7595368,-0.1892386,-0.06949007,0.7858347587838075
0.6975776,-0.1435558,-0.08672306,0.717456385344199
0.7321778,-0.1117037,-0.1072052,0.7483682264190337
0.7790343,-0.08722838,-0.1282056,0.7943172582320457
0.8387698,-0.07674822,-0.1242993,0.8513961373213402
0.7834418,-0.148964,-0.09046394,0.8025927059994773
0.6724742,-0.1987045,-0.03571762,0.702125897802064
0.6753782,-0.2404151,0.01918654,0.7171493963327458
0.7547189,-0.2767158,-0.00792481,0.8038874638905535
0.9347472,-0.2566077,-0.1043295,0.9749279379407383
1.04538,-0.2438356,-0.1996101,1.0918421755223462
0.9215788,-0.2115494,-0.2373619,0.9748852777744723
0.813118,-0.2368262,-0.143556,0.8589853642911734
0.9102818,-0.438199,0.05546389,1.0117843456518647
1.119777,-0.7383334,0.2724506,1.3686731051368402
1.342127,-0.8187596,0.3293689,1.606286412508171
1.536411,-0.4802703,0.2431513,1.6279867556816239
1.662121,-0.200345,0.2863579,1.698465538231026
1.616699,-0.2709783,0.3097589,1.6682612121011207
1.444644,-0.2816524,0.1814093,1.482981353654944
1.429425,-0.1895134,0.1405007,1.4487620943774895
1.346532,-0.2707993,0.1886661,1.386389406044961
1.007465,-0.3364639,0.2321327,1.0872346906889516
0.839999,-0.2650403,0.1914252,0.9013813220941125
0.7129648,-0.2264699,0.1088795,0.7559511671829735
0.5925181,-0.1448665,0.118879,0.6214468748741602
0.7183934,-0.06920653,0.1171818,0.731170428292502
0.7430073,-0.1053027,0.1303233,0.7616644070740539
0.7237432,-0.09467576,0.167857,0.7489617423652677
0.7188866,-0.09344929,0.1550109,0.7413225293891142
0.6064295,-0.1243724,0.170871,0.6422010051323572
0.6379588,-0.1287519,0.1311654,0.6639072558785678
0.7456153,-0.1751703,0.04642625,0.7673214491236658
0.8779764,-0.1907953,-0.01537261,0.8985998679040978
0.971542,-0.2193304,-0.07153035,0.9985570955630342
0.9132559,-0.303528,-0.03720966,0.9630940475707062
0.8962824,-0.3079256,-0.009438795,0.9477496539361923
0.8165723,-0.2157783,-0.02271817,0.8449063327531218
0.6898211,-0.115354,0.0202375,0.6996922550146314
0.7696643,-0.1262168,0.0499752,0.7815441995893578
0.890233,-0.1983611,0.0544505,0.91368855592727
0.927771,-0.2727447,0.06661818,0.9693227954224549
1.022341,-0.4521401,0.072085,1.1201821448023577
1.191663,-0.60972,-0.002532259,1.3385908995300404
1.437673,-0.6358398,-0.2953043,1.5995000893377687
1.703118,-0.6409752,-0.5845118,1.911312160082251
1.652712,-0.5006027,-0.4111704,1.7751397454925768
1.422653,-0.2009015,-0.04787092,1.4375655101917604
1.434261,-0.1044073,0.02670154,1.4383040265022766
1.456019,-0.1535028,0.03023895,1.4644005026173483
1.426787,-0.1625825,-0.07569611,1.4380139476877065
1.416681,-0.2644482,-0.2662787,1.4655450359227893
1.156522,-0.2495787,-0.1132167,1.1885498244232675
0.8133998,-0.1638391,-0.00837278,0.8297786384173663
0.6562922,-0.2514069,-0.156255,0.719958683657229
0.7228919,-0.2380002,-0.1860344,0.7834702242389369
0.8279579,-0.21308,-0.2059708,0.8793982835013098
0.7958512,-0.2417328,-0.209644,0.8577671513139682
0.8468011,-0.1500631,-0.1422129,0.8716739905889299
0.8547855,-0.127823,-0.106541,0.8708317604567773
0.7808938,-0.09627549,-0.07996237,0.7908590756065186
0.8172984,-0.04966141,-0.1127204,0.826528171850124
0.7781503,-0.1103601,-0.1544312,0.8009658148732316
0.767077,-0.1318536,-0.1753302,0.7978302919756807
0.7207862,-0.1542351,-0.1451944,0.751267346537709
0.5242793,-0.1710062,-0.01087179,0.5515705763224994
0.4764445,-0.1876848,0.07574006,0.5176499806047457
0.5604036,-0.2556185,0.0742654,0.6204098339584649
0.7934196,-0.2696675,-0.03806075,0.8388586549061603
1.064707,-0.2671083,-0.2170854,1.1189610854140775
1.034124,-0.2471556,-0.2568402,1.0938305290690145
0.8161685,-0.192685,-0.2302415,0.8696376704924298
0.7189263,-0.220617,-0.1952287,0.7769434540713887
0.9218652,-0.4200339,-0.01127687,1.01310961495647
1.32059,-0.6938078,0.1879601,1.5035478744066815
1.712704,-0.7004047,0.1480854,1.8563003585334055
1.895785,-0.4261431,0.06773582,1.9442702613612344
1.723818,-0.2388367,0.1551128,1.747183861851617
1.540572,-0.2295316,0.1466548,1.5644661942482492
1.53594,-0.2131222,0.09131607,1.5533420036724317
1.397223,-0.1114404,0.1419698,1.40883160760724
1.122448,-0.07631533,0.1386358,1.1335490405530098
0.9123244,-0.1501559,0.1712396,0.9403220755402534
0.7417993,-0.1930111,0.178606,0.7870321400296815
0.638448,-0.2012979,0.1117816,0.6786986218838006
0.6440341,-0.1832359,0.1378683,0.6836395140397533
0.6808948,-0.1536966,0.1063466,0.7060807127022802
0.6950273,-0.1592693,0.07309532,0.7167793129504244
0.633791,-0.1520325,0.1257426,0.6637892091560468
0.5372942,-0.1568437,0.132263,0.575133466903405
0.5089248,-0.1716786,0.1169337,0.5496830759161955
0.5899876,-0.1612662,0.01096474,0.6117290093983344
0.7843499,-0.1906822,-0.09859592,0.813194701450702
0.9331733,-0.2694552,-0.0653779,0.9734951373521801
0.8765746,-0.3351756,-0.0283215,0.9388971293825378
0.7694785,-0.2973852,-0.01171645,0.8250287233435527
0.776909,-0.250004,0.05573137,0.8180437518244833
0.7873368,-0.3514073,0.09099666,0.8669871505729976
0.875423,-0.4853646,-0.02347182,1.001246797845702
1.229997,-0.6043912,-0.2542443,1.393851321601027
1.612319,-0.6788441,-0.4399663,1.8038769955297673
1.724169,-0.547434,-0.3446277,1.8415240906717159
1.621413,-0.3148225,-0.02753185,1.6519235229996794
1.492517,-0.1268253,0.1413019,1.5045457384050178
1.312346,0.02057665,0.15572,1.3217125786801087
1.211352,0.0886917,0.104903,1.2191162885311186
1.448353,0.08979861,-0.0774958,1.4532019137011112
1.598121,0.02630542,-0.326313,1.6313071077302939
1.361051,-0.05027798,-0.3839191,1.4150553258507916
0.9375288,-0.01441641,-0.1110719,0.9441954515227968
0.5193742,0.00659995,0.03403845,0.5205302441204017
0.5355786,-0.1025191,-0.08159189,0.5513726862626966
0.7491255,-0.2077289,-0.1531571,0.7923366758682006
0.6883915,-0.2427236,-0.2270627,0.7644312088085494
0.6985859,-0.2041428,-0.21026,0.757565713367923
0.7416769,-0.1169011,-0.1472942,0.7651444782055609
0.6945693,-0.01975598,-0.1512349,0.711117997400052
0.8080964,0.05936004,-0.1096969,0.8176654669920772
0.894132,0.0252193,-0.1263928,0.9033732265283989
0.8898987,-0.0402512,-0.1439332,0.902361691022713
0.9060677,-0.05837017,-0.1249898,0.9165087036319726
0.8775792,-0.1247223,-0.1789458,0.904280102472442
0.838121,-0.2231603,-0.2641372,0.9066508647549673
0.7702935,-0.4331086,-0.3254063,0.9417135422281555
0.8025127,-0.7734655,-0.2073799,1.1337027548151897
1.103993,-1.076942,-0.001104259,1.542272944326308
1.545421,-1.264562,0.04141317,1.9972877032952585
1.805396,-1.153904,0.004051124,2.142653861368575
1.731512,-0.7217585,-0.03548301,1.8762537628116591
1.729786,-0.2318299,-0.08646275,1.7473924903889144
1.772281,-0.01183582,-0.09470569,1.7748490632486045
1.539453,-0.1493271,-0.1187847,1.551233034381843
1.405736,-0.2055732,-0.1757882,1.4315221037460373
1.2796,-0.1904629,-0.1372075,1.3009527948133475
0.9783974,-0.3005331,-0.06068442,1.0253117649540096
0.7887384,-0.245921,-0.04840089,0.8276037989450943
0.5832455,-0.215165,-0.02068548,0.6220122021134958
0.5137592,-0.2614478,0.02158968,0.5768618396045819
0.7138809,-0.2336418,0.066412,0.7540722669851014
0.9069567,-0.3525939,0.09920886,0.9781284741252549
1.048507,-0.4069552,0.06897534,1.1268261007733873
0.9749581,-0.3524318,0.0799385,1.0397796084695545
0.7977259,-0.3227446,0.1272176,0.8698936751751504
0.7579991,-0.2058311,0.1287258,0.7959267610236888
0.750099,-0.1802571,0.1007699,0.7780075222306143
0.8082176,-0.2216786,0.04588971,0.8393229152904168
0.8221646,-0.2324307,0.05359196,0.8560670289015292
0.8117192,-0.2965993,0.07673075,0.8676098272868356
0.9768629,-0.4032064,0.007173372,1.0568292121545564
1.202335,-0.5638604,-0.1075069,1.3323309410430915
1.419849,-0.6403328,-0.2852848,1.583472353616532
1.415585,-0.5427568,-0.30232,1.5459182444654826
1.039335,-0.3067179,0.04131347,1.0844352978434677
0.7262254,-0.001908801,0.310521,0.7898292641877849
0.8982489,0.1077535,0.1410053,0.915611488428116
1.245173,-0.09176448,-0.1441834,1.2568473942982221
1.271196,-0.3608587,-0.1953607,1.335785939020987
1.173234,-0.4404931,-0.1538601,1.2626104388431216
0.9703561,-0.3519467,-0.0858947,1.0357776498535727
0.6873479,-0.238254,-0.006837189,0.7275017878354882
0.7920971,-0.1788251,-0.09175491,0.8171996058048047
0.9133258,-0.1368604,-0.1600942,0.9372966120217441
0.8434413,-0.07221777,-0.1243517,0.8556120488529558
0.8919018,-0.08926391,-0.1265665,0.9052491068175532
0.8411287,-0.1200232,-0.1038106,0.855967113371939
0.7805243,-0.1153125,-0.08056784,0.7930991945456795
0.8045481,-0.1401397,-0.09128756,0.8217482578870816
0.7586996,-0.1344287,-0.1143031,0.7789488796406733
0.7673563,-0.1552372,-0.1321725,0.7939797536271187
0.765449,-0.1744322,-0.1090344,0.7926078881648857
0.6765999,-0.1641004,-0.06833085,0.6995609130175102
0.611126,-0.179305,-0.008073841,0.6369383469453642
0.618802,-0.1295385,0.0266012,0.6327746534333452
0.6506007,-0.08754478,0.04582956,0.6580620851527096
0.6896,-0.09681944,0.02682062,0.6968798387233612
0.8770483,-0.1580791,-0.11321,0.8983424884139123
1.107415,-0.3760362,-0.1929793,1.1853321121795064
1.184381,-0.6038012,-0.09836387,1.3330452705005247
1.280089,-0.6282328,0.07805856,1.428074731134934
1.497025,-0.4928091,0.2024055,1.5889973713313876
1.682296,-0.4063896,0.1713852,1.739150719570676
1.751886,-0.3761867,0.1216618,1.7959461528208829
1.703175,-0.33109,0.1164349,1.7389602510301982
1.541172,-0.3521102,0.0925837,1.5835922669783817
1.343022,-0.3485066,0.158749,1.3965551144614952
1.181848,-0.2879333,0.2356673,1.239035655920434
1.052434,-0.2378707,0.1378437,1.0877502837987127
0.9280505,-0.1739675,0.04591639,0.9453310195255057
0.7765115,-0.157595,0.07837172,0.7962087792488906
0.6449696,-0.144264,0.09264851,0.667369187950253
0.607154,-0.1294525,0.1036151,0.6293886068402096
0.6360865,-0.1730617,0.1461798,0.6752221274641257
0.6357484,-0.1770943,0.1613911,0.6794008436514191
0.5849667,-0.1617498,0.1602977,0.6277295520638008
0.5902557,-0.1714918,0.153721,0.6335940140900402
0.6553708,-0.2019297,0.1308888,0.6981535412788293
0.7794784,-0.246193,0.05439857,0.8192415844753029
0.9394785,-0.209092,-0.08179542,0.9659346805862322
0.9500118,-0.1452681,-0.1443876,0.9718400177244245
0.8430034,-0.1340584,-0.05659178,0.8554700559257983
0.763102,-0.1279459,0.03752022,0.7746628832206035
0.7770908,-0.1416935,0.03784802,0.7908094789548304
0.884169,-0.1723013,0.03633496,0.9015335755593863
0.9856516,-0.2489329,0.06426935,1.0186300676076632
1.079853,-0.4401231,0.06546259,1.1679367257913067
1.131157,-0.6106133,-0.01858777,1.285577794604225
1.203293,-0.6128487,-0.2076466,1.3662410780796521
1.396567,-0.5287773,-0.3401713,1.531574788192852
1.469255,-0.4050365,-0.2976921,1.552863615311937
1.355424,-0.2218988,-0.1613712,1.3829150232052871
1.361252,-0.1421709,-0.07660318,1.3707981687677153
1.671811,-0.1730095,-0.1859436,1.6909935922977974
1.90068,-0.162379,-0.2823762,1.9283899295441884
1.53127,-0.2046117,-0.06479376,1.5462380127301965
1.093899,-0.253004,0.1062663,1.1277936747174502
1.120392,-0.2197931,-0.102518,1.1463407786498787
1.013182,-0.2391421,-0.2897279,1.0805873241690465
0.7999015,-0.2368179,-0.2369568,0.8672218012301697
0.8919107,-0.1921305,-0.1816217,0.9302716096472201
0.8510902,-0.1822709,-0.1515245,0.8834799848457802
0.7876403,-0.1563554,-0.1102105,0.8105372339402429
0.8095394,-0.1551545,-0.1082663,0.8313534451352805
0.6170329,-0.1418354,-0.1006591,0.6410765436267186
0.628663,-0.11492,-0.09778678,0.6465183897707538
0.7231713,-0.1433912,-0.1200468,0.7469598379908856
0.6568286,-0.1542217,-0.1208552,0.6854298810935294
0.6744433,-0.1724984,-0.0965363,0.7028148548054032
0.5652921,-0.2070374,-0.06200963,0.6051981803788795
0.4989098,-0.19637,-0.06424016,0.5399990403629118
0.6039814,-0.196722,-0.08514315,0.6408919041631611
0.7352022,-0.2394799,-0.08224881,0.7775845704071462
0.9361613,-0.2686547,-0.1334473,0.9830470534654331
0.9279937,-0.2368948,-0.255295,0.9911947288659934
0.8802228,-0.2321638,-0.3405774,0.9719491617677541
0.9815483,-0.3872791,-0.1912328,1.072376869540527
1.057427,-0.6237448,0.133685,1.2349417456224563
1.402426,-0.6780252,0.2202654,1.5732239839731024
1.85858,-0.4686669,0.08583382,1.918680724928304
1.93189,-0.3075916,0.04481832,1.9567371428728444
1.764704,-0.3654183,0.1089284,1.8054296269634686
1.599453,-0.3628587,0.1739206,1.6492921846898596
1.460707,-0.2121148,0.1662553,1.4853613880150953
1.290422,-0.1459665,0.1361739,1.3057712235485432
1.027303,-0.1947889,0.1251302,1.0530677738513556
0.7612655,-0.2368795,0.1200639,0.8062582707133676
0.6374718,-0.2227446,0.143423,0.6903300729023762
0.5930084,-0.1739813,0.1246383,0.6304467947790202
0.5614846,-0.1359951,0.09208976,0.5850129461456623
0.6247899,-0.1100357,0.08597798,0.6402050354858047
0.6498417,-0.1252921,0.09195069,0.6681671009356687
0.5946049,-0.1641644,0.1337496,0.631184515677888
0.5851412,-0.1884207,0.1212251,0.6265685189952812
0.5397077,-0.2044515,0.09793246,0.5853849878611439
0.5673454,-0.1426854,0.06923803,0.5890957741085917
0.7301736,-0.08769544,-0.0776938,0.7395135582882801
0.8636097,-0.1352358,-0.1692396,0.8903664850744832
0.9177616,-0.1890571,-0.09553227,0.941889248322924
0.8351243,-0.2432178,0.01817979,0.8700103444510152
0.7925518,-0.2765926,0.08116115,0.843343912248925
0.8540023,-0.2908491,0.09439872,0.9070966021950134
0.9006296,-0.3683625,0.07035877,0.9755895470526132
1.128525,-0.4765551,-0.06054607,1.2265150898188961
1.442164,-0.5594137,-0.2954083,1.5748164192541874
1.608039,-0.5381235,-0.4231667,1.7476945908144648
1.656384,-0.3734438,-0.2716674,1.7195555831194294
1.616349,-0.1722516,-0.1041742,1.6288360775256667
1.602997,-0.1001341,-0.1343708,1.61173252491983
1.59163,-0.2061268,-0.1380715,1.6108501027999131
1.439392,-0.2690707,-0.1131479,1.4686901710493265
1.198209,-0.2026041,-0.1311882,1.2222780259977883
1.034707,-0.1960655,-0.1376548,1.062077727900501
0.9697914,-0.22618,-0.1933932,1.0144228318212283
0.8660375,-0.2184819,-0.2223813,0.9204394247442631
0.78594,-0.2266819,-0.2230676,0.8478475815601351
0.7627023,-0.2111899,-0.230407,0.8242592783440779
0.7069792,-0.1916164,-0.1578854,0.7493091708465606
0.7092015,-0.2096667,-0.088834,0.744861310746598
0.7640814,-0.2123139,-0.08408394,0.7974758221570694
0.8290908,-0.1850172,-0.1376156,0.8605585234624313
0.9141224,-0.1169657,-0.2230913,0.9481932636830638
0.9032614,-0.04622794,-0.2491351,0.9381292433447609
0.8094186,-0.04649466,-0.189028,0.8324973322590743
0.7324991,-0.06941041,-0.08277691,0.7404220103065049
0.7082579,-0.05563256,-0.0507554,0.7122501985073248
0.7486709,-0.04379512,-0.08096757,0.7543088733631134
0.7628445,-0.05405138,-0.07198749,0.7681376709787475
0.7566203,-0.09430146,-0.06912644,0.7656014031056207
0.8473646,-0.1721378,-0.08090767,0.8684493298902526
1.005032,-0.2025766,-0.1310572,1.033587243324626
1.093025,-0.2221803,-0.2472858,1.142461379309922
1.042514,-0.3649319,-0.3104851,1.1473498721643802
1.035796,-0.5790452,-0.2402677,1.2107416177377937
1.239034,-0.7751186,-0.1248614,1.4668348463381689
1.480533,-0.8268419,-0.0942117,1.6983878638584005
1.533349,-0.6465629,-0.142059,1.6701447538876415
1.348858,-0.4419887,-0.1405877,1.4263719067911353
1.215093,-0.3970329,0.05503618,1.279497988837967
1.386462,-0.4087576,0.2561162,1.4679765532542406
1.576506,-0.2756597,0.1095665,1.604170893690052
1.577762,-0.04656446,-0.1442751,1.5850288584310073
1.417178,0.03233223,-0.2427086,1.4381746490933336
0.9873884,0.01128357,-0.2988402,1.0316824300832816
0.4900018,-0.01692055,-0.1737175,0.5201594359634288
0.3957973,-0.1721707,0.1070854,0.44470837131646174
0.7324702,-0.3746385,0.2258701,0.8531611229095591
1.064709,-0.5005872,0.1215079,1.1827751135559328
1.105944,-0.5196158,0.002187974,1.2219318712497291
0.8747143,-0.391441,0.08074874,0.961702408293271
0.6412597,-0.2884515,0.1497119,0.7189102334074471
0.7172852,-0.3230751,0.1026674,0.793357531886986
0.8731946,-0.3598446,0.1104914,0.9508760671571664
0.971869,-0.3579047,-0.0007344224,1.0356764295953402
1.219885,-0.3589422,-0.1265932,1.2778829189139669
1.320021,-0.326107,-0.07012174,1.3615132295760581
1.203684,-0.1757942,0.01032935,1.2164972125249867
1.187895,0.01827417,0.116564,1.1937401904979947
1.192005,0.005178728,0.1076247,1.1968649945999708
1.154389,-0.2352953,-0.03665423,1.178694775631072
1.108585,-0.4260731,-0.09117614,1.1911389831895811
1.074647,-0.4264195,-0.07489823,1.1585808169680625
1.032459,-0.3791906,-0.01288121,1.0999650100709677
0.8937454,-0.4024093,0.0128383,0.980244309697608
0.8313979,-0.3793961,-0.008420508,0.9139117975902259
0.8880498,-0.1940077,-0.04064709,0.9099030832263391
0.9051622,0.025267,-0.1340922,0.9153893967589313
0.9171951,0.08354127,-0.1510836,0.9333017997658544
0.9243597,0.002715977,-0.1210086,0.932250670575846
0.90033,-0.05643773,-0.1217524,0.91027631693531
0.8620545,-0.1335386,-0.08314151,0.8762893525230636
0.7905547,-0.2501435,-0.0693035,0.8320766066875034
0.7328989,-0.2356829,-0.08067138,0.7740769332080142
0.7209756,-0.2069513,-0.08657849,0.755069858554644
0.7130029,-0.2397573,-0.09444771,0.7581405333023318
0.7085744,-0.2078275,-0.1038667,0.7456931282105931
0.6936924,-0.1972895,-0.112814,0.7299721167442014
0.6654257,-0.1677619,-0.07625219,0.6904707189967553
0.7127961,-0.1051437,-0.04388903,0.7218446680410134
0.8163709,-0.0787644,-0.04490459,0.8213901017648302
0.9097958,-0.007898627,-0.06652162,0.9122586869597623
0.989879,-0.0103009,-0.1324774,0.9987576306054287
1.026159,-0.1803054,-0.1660207,1.0550237928021577
1.11781,-0.4705954,-0.08095976,1.215530217370353
1.337032,-0.7132291,0.04663357,1.5160887203464561
1.516271,-0.6663798,0.05617981,1.657195207071477
1.532996,-0.4906962,0.02095163,1.6097510576204315
1.498134,-0.4087439,0.08214861,1.5550644526411574
1.57375,-0.4104442,0.1733897,1.6356092112359022
1.700312,-0.395043,0.2241608,1.759934070767891
1.704607,-0.2573907,0.1133965,1.727655568424372
1.452476,-0.1670994,-0.05595295,1.463126608557873
0.9562173,-0.1544521,-0.009217438,0.9686547048236456
0.5798524,-0.1028419,0.08325811,0.5947580811238651
0.5536376,-0.1406943,0.1245368,0.5846527967439221
0.6422109,-0.1900643,0.2001408,0.6990104563151684
0.6587739,-0.1894661,0.1731802,0.7070161497748549
0.6413564,-0.2233463,0.1186223,0.6894148617501221
0.6230324,-0.1940595,0.1170552,0.6629708748029962
0.5626617,-0.1577705,0.1009675,0.5930212098849332
0.4845766,-0.1504084,0.1296605,0.5236878968606874
0.4738498,-0.1474975,0.1298435,0.5129799995697103
0.5494153,-0.1944229,0.06312345,0.5862098650299247
0.7582178,-0.1973243,-0.024469,0.7838557543121886
1.04352,-0.2400103,-0.1551988,1.0819545286321093
1.137482,-0.3348244,-0.1921331,1.2012026503779327
0.952106,-0.3077086,-0.06141989,1.0024783392361014
0.7447012,-0.2458258,0.1054831,0.7912881179524245
0.7291076,-0.2238267,0.1403348,0.775493481662928
0.873549,-0.2666317,0.003634275,0.9133419550204982
1.042456,-0.3534485,-0.2024055,1.1191998662073275
1.167717,-0.3538123,-0.3749582,1.2764559481108346
1.536338,-0.3335153,-0.3444588,1.609415661187479
2.058101,-0.3435334,-0.2670565,2.103595516564154
1.955039,-0.2866295,-0.3043882,1.9992463925415722
1.495488,-0.1075322,-0.0916852,1.5021496956295266
1.338197,0.05814964,0.2018671,1.3545858841371188
1.163322,-0.06573266,0.2224045,1.1862135642012048
1.078679,-0.2502764,0.1957796,1.1245071423579842
1.15153,-0.1752711,0.01695538,1.164915784211955
1.022334,-0.1759516,-0.257282,1.0687936192841723
0.9331878,-0.2357499,-0.1858868,0.9802914810570833
0.8228084,-0.09884788,-0.06401417,0.8311933472134165
0.6357791,-0.05916625,-0.1457733,0.654954627534429
0.6688542,-0.1089736,-0.1098009,0.6865110516192802
0.7430078,-0.1258604,-0.06781456,0.7566374598822039
0.7820275,-0.1933994,-0.1138335,0.8135898256485635
0.8302147,-0.1699653,-0.07475243,0.850724736381331
0.8243745,-0.1116251,-0.1297961,0.8419622953407533
0.7997653,-0.08133165,-0.1943935,0.8270599767961586
0.7493677,-0.05038134,-0.1400893,0.7640125923032783
0.6548534,-0.09983351,-0.1225724,0.6736643811663491
0.5678329,-0.167631,-0.05028104,0.5941906575055615
0.6087888,-0.2452878,0.02330165,0.656759373535698
0.7373,-0.2406963,0.02661435,0.7760504638614762
0.867436,-0.1393429,-0.04318414,0.8796172621225379
0.8969975,-0.1587124,-0.1756364,0.9277080822785635
0.8325272,-0.2967435,-0.1001489,0.8894875185764554
0.9795539,-0.517648,0.04192437,1.1087122925759896
1.326056,-0.5983466,0.05726602,1.455926703482768
1.712235,-0.3783256,0.05838037,1.7545048368248226
1.871723,-0.2616509,0.0399206,1.8903443698184124
1.657744,-0.3671646,0.1723303,1.7066407780570725
1.568038,-0.420016,0.3115775,1.6529480173938471
1.567767,-0.3639605,0.1612982,1.6175220929472618
1.424967,-0.2918981,0.03989944,1.4551039197201427
1.293314,-0.2413083,0.09181504,1.3188331205331065
1.032356,-0.2004134,0.1067544,1.0570340314081283
0.7957669,-0.1778011,0.09312085,0.8206885420191649
0.689703,-0.1087229,0.1096561,0.7067781529310452
0.6490981,-0.07892579,0.09726569,0.6610735497672783
0.7504854,-0.1555315,0.0514479,0.7681570604504133
0.7182737,-0.1628358,0.03441598,0.7373039166806931
0.6461152,-0.1667,0.04085853,0.668523119379428
0.6131134,-0.1772596,0.07617282,0.6427529117463976
0.4372629,-0.1369723,0.13427,0.47748160968114783
0.4268547,-0.1549064,0.1527659,0.47910160496063875
0.5664513,-0.1429232,0.06980705,0.5883597034124894
0.7874898,-0.1462355,-0.1068691,0.8080507478488588
1.060704,-0.2176515,-0.1817134,1.0979457686096388
1.009743,-0.2413465,-0.07434826,1.04084423564541
0.8564993,-0.2616168,0.08670181,0.8997508570710039
0.8613798,-0.3013516,0.1455378,0.9241045384043085
0.9606365,-0.3861614,-0.09010238,1.0392600977925952
1.234613,-0.448537,-0.4075742,1.375344112810914
1.541141,-0.4242838,-0.3618933,1.6389323004347467
1.710657,-0.3915412,-0.08378761,1.756892781741661
1.69012,-0.3010753,0.04590802,1.717340821435981
1.677378,-0.2102912,-0.04563404,1.6911244215870582
1.804899,-0.1626733,-0.1862661,1.8217623507864849
1.626409,-0.1568215,-0.154932,1.6412809457150381
1.221883,-0.2157863,-0.02645043,1.2410726885254848
1.037504,-0.1553154,0.02011823,1.0492579123702108
0.9829584,-0.09371836,-0.02539753,0.9877425685176024
1.002211,-0.1342273,-0.1239759,1.0187315055337691
0.9025814,-0.09027241,-0.1192747,0.9148927509239857
0.6677286,-0.08331333,-0.1030702,0.6807540380649159
0.6669041,-0.1476266,-0.1640628,0.7024751198214852
0.7221075,-0.2122262,-0.1262408,0.7631618053252731
0.6849848,-0.2607146,-0.1551415,0.7491629755309922
0.6453773,-0.2155173,-0.2014834,0.709616182474822
0.5659526,-0.1988277,-0.1344114,0.6147367112707764
0.5570683,-0.1859572,-0.09950927,0.5956570035789581
0.5509335,-0.1244555,0.02614845,0.565420758674372
0.523844,-0.1351973,0.08011453,0.5469087530661865
0.5858933,-0.1277361,-0.005459341,0.5996809773806855
0.7089648,-0.09014244,-0.01336824,0.7147974936783782
0.9087884,-0.1070039,-0.1236596,0.9233839327505814
0.9841468,-0.117439,-0.3048789,1.0369609377100228
0.9165862,-0.1472818,-0.35823,0.9950632761496527
1.038695,-0.3558944,-0.1728564,1.1114978461505538
1.246831,-0.7010397,0.1219851,1.4355920618891358
1.391814,-0.7985107,0.1185263,1.6089791895491317
1.593327,-0.5482535,0.01109818,1.6850507407168966
1.696132,-0.3315251,0.05803343,1.7292022820802588
1.563776,-0.2966398,0.1127694,1.595652683605176
1.46042,-0.2917726,0.1836492,1.500561513291408
1.542571,-0.2667605,0.1679074,1.5744457276692676
1.561218,-0.2264771,0.1008814,1.5807816348928052
1.383099,-0.1966583,0.1305939,1.4031008864216072
1.105396,-0.2210585,0.09728105,1.13147283658396
0.7553137,-0.2223599,0.07327915,0.7907670607457182
0.5287096,-0.1455123,0.1176638,0.5608497485190574
0.5373313,-0.07469761,0.09188282,0.5502246009681451
0.5569299,-0.06983916,0.09648645,0.5695244128368143
0.5260822,-0.08424732,0.1163927,0.5453506694754416
0.4663177,-0.07716768,0.1173129,0.4870003744108236
0.3664838,-0.1069786,0.158147,0.4132375468533807
0.3118208,-0.1559126,0.1278947,0.3713462056349708
0.3572038,-0.1599963,0.05197554,0.3948351903090979
0.5701515,-0.1821099,-0.02950859,0.5992557930583968
0.8992871,-0.2389424,-0.1419261,0.9412511761508614
1.056381,-0.2919074,-0.161163,1.1077564081984632
0.9784126,-0.3383331,-0.05882559,1.0369286149167734
0.9956778,-0.4217723,0.01669907,1.0814550445575604
1.158072,-0.5284546,-0.130336,1.2796024751230985
1.35772,-0.4785868,-0.4311209,1.5027688291786765
1.697204,-0.3694617,-0.5279475,1.8154150842546009
1.843486,-0.3936627,-0.2997543,1.908733505216425
1.669249,-0.3699577,-0.05078393,1.710508676194463
1.585112,-0.3001399,-0.08527516,1.6155295927432083
1.494314,-0.2606465,-0.1586369,1.5251480566160978
1.350488,-0.1691286,-0.092752,1.3641939946305144
1.302067,-0.159846,-0.1480505,1.3201697492198683
1.14684,-0.1966074,-0.202776,1.181107345464738
0.956069,-0.1589419,-0.1770021,0.9852208908366792
0.9511536,-0.142829,-0.1927304,0.9809374603501082
0.9926469,-0.1168214,-0.1408605,1.009374453826636
0.9134652,-0.09412837,-0.1183898,0.9259022445128519
0.7873347,-0.1186793,-0.08462733,0.8007137385205207
0.6637387,-0.1163979,-0.0003538015,0.6738676859574151
0.5954936,-0.1208841,-0.06574374,0.6111855958896263
0.6872398,-0.1500585,-0.1258886,0.7146076096266047
0.7413564,-0.1707013,-0.1351146,0.7726604692721183
0.7353112,-0.1720721,-0.1589349,0.7717199432966989
0.8098642,-0.1270631,-0.1276403,0.8296487811160456
1.492,-0.4006432,-0.3390459,1.5816229310467935
1.701261,-0.2898652,-0.2804782,1.7484218155145743
1.655204,-0.1456107,-0.09005078,1.6640348255217192
1.415466,-0.1660498,0.01152005,1.4252190164280163
1.354205,-0.3152622,-0.08735543,1.3931591466606839
1.480498,-0.4959542,-0.2014891,1.5743070710380647
1.627743,-0.6217158,-0.2102854,1.755077707530866
1.470676,-0.4932771,-0.1263439,1.5563331826532583
1.102096,-0.2055662,-0.02125129,1.1213048974855608
0.9072668,-0.0419101,0.02761657,0.9086540473705133
0.7659149,-0.05244961,-0.01186512,0.7678003495074591
0.6674022,-0.172658,-0.06647033,0.6925711416880932
0.666275,-0.2428166,-0.04632691,0.7106535438951304
0.8041559,-0.2523455,-0.09200003,0.8478260248394484
1.019941,-0.2893519,-0.2089355,1.0805823470124154
0.9326213,-0.2194944,-0.246033,0.9891878072105671
0.7136954,-0.1049152,-0.1930153,0.7467417419739504
0.5245576,-0.06691777,-0.07812201,0.5345481382494686
0.39448,-0.07449483,-0.0204799,0.40197434793869485
0.5067496,-0.1084068,-0.01739983,0.5185074208441273
0.5242523,-0.09691712,-0.01169109,0.5332636156628094
0.549983,-0.1323245,-0.03142963,0.5665499935850206
0.7903734,-0.1807046,-0.02210929,0.8110690997646404
0.8825138,-0.1217433,-0.03520068,0.8915666694968989
0.8768124,-0.1075891,-0.06747937,0.8859621123999417
0.8501831,-0.1653626,-0.09706276,0.8715373040686138
0.8374235,-0.2953647,-0.1420091,0.8992691526129148
1.037158,-0.5235528,-0.04787777,1.1627968576720584
1.372045,-0.6694326,0.08426305,1.5289695057662407
1.657305,-0.5662377,0.08212942,1.7532912586207194
1.692333,-0.3734716,0.07513789,1.7346808701917515
1.50319,-0.3420511,0.1331743,1.5473572713797223
1.366025,-0.3179691,0.1785043,1.4138572892262855
1.379092,-0.2515524,0.1239652,1.4073168531715947
1.376247,-0.2426405,0.0741788,1.3994401422064076
1.228693,-0.2013114,0.1578127,1.2550368983819757
1.053568,-0.2502145,0.2201441,1.105023190434961
0.8731269,-0.3284085,0.1847687,0.9509690840797875
0.7550361,-0.2785483,0.1619737,0.8209166505972394
0.7877073,-0.2387853,0.1449051,0.8357623453921516
0.7737773,-0.1709127,0.1084,0.7998081151229838
0.7163007,-0.07542826,0.1088676,0.7284423584312472
0.6232198,-0.04272846,0.1262014,0.6373032510257355
0.4571989,-0.01891,0.1337139,0.4767261575731082
0.401829,0.006877867,0.1557228,0.4310028314701768
0.4323978,0.01351556,0.1378186,0.45403138031738904
0.5553135,-0.06491285,0.06960709,0.5634109586754953
0.8388983,-0.2056291,0.01110569,0.8638038092414713
1.129006,-0.272252,-0.01068841,1.1614172125676145
1.262458,-0.284766,0.02292544,1.294379176408209
1.229358,-0.3468528,0.04341673,1.2780895780326718
1.216995,-0.4714043,-0.01515467,1.305192900726287
1.239279,-0.5452415,-0.165867,1.364042739378884
1.21921,-0.4030958,-0.3244075,1.324461956469075
1.24231,-0.1848303,-0.2658798,1.2838179169750399
1.30257,-0.2035224,-0.151657,1.3270681285641517
1.425942,-0.2854506,-0.2053751,1.4686631894700604
1.600885,-0.2877474,-0.1922781,1.6378651401050606
1.682718,-0.413482,-0.2132907,1.7458522716869518
1.577823,-0.4317325,-0.3124916,1.6654036660689233
1.235398,-0.2252647,-0.116084,1.2611216826801805
0.8255932,-0.06586931,0.07564014,0.831663591042277
0.6910978,-0.01232706,-0.02868257,0.6918025841198401
0.8020717,-0.1010033,-0.1138239,0.8163801557871125
0.7927679,-0.1879401,-0.1557961,0.8295027722880919
0.7387521,-0.1771494,-0.1895749,0.7829911991106797
0.830706,-0.1901304,-0.1364179,0.8630364250021955
0.8521627,-0.1256923,-0.113161,0.8687837668094289
0.8443788,-0.06275631,-0.1335216,0.8571708872802529
0.8256237,-0.08788235,-0.1167679,0.8384584330267199
0.7108258,-0.08906386,-0.07359829,0.72015442607448
0.7226657,-0.1169095,-0.01518997,0.7322187380389421
0.7742676,-0.160814,0.02318606,0.7911315013220518
0.7793597,-0.1970362,0.008544727,0.8039265006541547
0.8272899,-0.2208102,-0.01530446,0.8563877331921222
0.8665999,-0.2134525,-0.05634068,0.8942771542755201
0.9467567,-0.2014431,-0.1100976,0.974191486853719
0.9556806,-0.1656061,-0.120053,0.9773246709167686
0.8992878,-0.2002807,-0.1072272,0.9275389902538707
0.9285151,-0.3787923,-0.06087716,1.0046541325635232
0.9819132,-0.5972458,-0.002650892,1.1492880862430777
1.176616,-0.6717512,0.01558443,1.3549604276936893
1.477272,-0.5913522,0.04437661,1.5918540353763382
1.586584,-0.4910545,0.07840766,1.6626879058238577
1.459354,-0.289722,0.09453647,1.4908353627279107
1.323801,-0.1394091,0.1088685,1.3355659231412202
1.33952,-0.2005529,0.113216,1.35917370440809
1.32867,-0.2394027,0.1359665,1.3568951731027492
1.26408,-0.3043886,0.18193,1.3128782087878375
1.223574,-0.3622988,0.1867474,1.2896776129576724
1.076303,-0.3089006,0.1449037,1.129090258023268
0.8991475,-0.2913977,0.1079763,0.9513347085454362
0.7385225,-0.1557915,0.06406666,0.7574899414527269
0.5801728,0.01126555,0.03666875,0.5814395821606962
0.538149,-0.02913443,0.07094982,0.5435871946343634
0.4929718,-0.08462602,0.09148945,0.5084811484387429
0.4009716,-0.09698093,0.06119512,0.41704720056851996
0.4215446,-0.1191733,0.02459523,0.43875625415577024
0.5266428,-0.1887946,-0.003412074,0.5594708947121213
0.7109216,-0.3202738,-0.03559135,0.7805456889303934
0.999948,-0.3617961,-0.06928887,1.0656422327334287
1.120263,-0.3424738,-0.05542707,1.1727530229951337
0.9782529,-0.3498372,-0.001363204,1.038925724576784
0.8662226,-0.2667951,0.04605309,0.9075473019260859
0.8570371,-0.157877,0.06347777,0.8737660815055611
0.9768848,-0.2429394,-0.0341404,1.0072184626264353
1.241675,-0.3657347,-0.230775,1.314829181693991
1.397154,-0.3410116,-0.3111696,1.4714464757559889
1.411712,-0.3333656,-0.1760551,1.4611840378416985
1.348094,-0.345868,0.02751834,1.392027070604719
1.307858,-0.3130731,0.08984293,1.3478052775451634
1.593206,-0.2638154,-0.06037637,1.6160288455864693
1.863452,-0.1486314,-0.1990126,1.8799336861519134
1.580262,-0.04944721,-0.1103166,1.5848794173237106
1.12396,-0.002978351,0.01653303,1.1240855364498115
0.9437627,0.004449086,0.0295886,0.9442368948137354
0.9434898,-0.05767055,0.009422098,0.945297662629113
0.9743037,-0.1151544,-0.110365,0.9872733506471498
0.9070969,-0.19074,-0.2298467,0.955005779611045
0.8100059,-0.1943872,-0.1800618,0.8522430365675567
0.797975,-0.08677184,-0.1487728,0.8163496792807758
0.734115,-0.07128657,-0.1758824,0.7582487895915989
0.7118859,-0.05961484,-0.1632212,0.7327868884583536
0.7816485,-0.04959531,-0.1783627,0.8032728833201928
0.7646472,-0.09508764,-0.1967969,0.7952710353069697
0.7777341,-0.04200243,-0.1732482,0.7979031728423913
0.8366444,0.0002304846,-0.1526592,0.8504579569379963
0.8467307,0.01477741,-0.13857,0.8581217250884621
0.827436,-0.001760922,-0.0872059,0.8320206150914171
0.7185836,-0.1072416,-0.02959058,0.7271442452390422
0.673792,-0.1388515,-0.03465912,0.6888226570862955
0.8374284,-0.2040477,-0.09678664,0.8673462069348892
1.081597,-0.3026677,-0.2131546,1.143194948612637
1.184695,-0.2983641,-0.3218836,1.263381348264557
1.051001,-0.3481004,-0.3307069,1.1554843331645697
0.9715235,-0.5083027,-0.2808407,1.1318573428908918
1.073972,-0.7649765,-0.2020507,1.3339525432738377
1.253451,-0.8989926,-0.1148741,1.5467783173766596
1.590892,-0.7664353,-0.1222198,1.7701124552587415
1.781611,-0.5939252,-0.1619822,1.8849729790192964
1.450026,-0.3064042,-0.1083676,1.4860021773817829
1.050603,-0.01329142,-0.03319541,1.0512113301804185
1.056976,-0.04753563,0.02752022,1.058402221844014
1.239193,-0.1346111,0.03042747,1.246854149619277
1.365452,-0.1929339,-0.05267409,1.380020729493053
1.360271,-0.4338878,-0.07347977,1.4296835639501118
1.145746,-0.5735373,-0.06597032,1.2829774020333298
0.8883382,-0.4915485,-0.03492357,1.0158663008354174
0.7619662,-0.3990352,0.09382135,0.8652306204112881
0.8121252,-0.2904098,0.1365299,0.8732271216614209
0.9510469,-0.2395009,0.07971782,0.9839745006482498
1.010628,-0.316787,0.04711727,1.0601617776949201
0.9422199,-0.3345078,0.0732856,1.0025191207075355
0.76553,-0.2674804,0.1485068,0.8244005185165765
0.6985678,-0.233884,0.179314,0.7581900864881049
0.809119,-0.2335685,0.1729411,0.8597304370687711
0.9005086,-0.2414604,0.15578,0.9452440276680514
0.9472872,-0.2262859,0.1732218,0.989224008917035
0.8805162,-0.1917836,0.207944,0.9248407618760107
0.7758119,-0.2018275,0.1727204,0.8200309631434779
0.7965485,-0.3197486,0.1158017,0.8661054865182993
0.8857061,-0.5181048,-0.08217652,1.0293982998818099
1.053258,-0.5988091,-0.3513762,1.2615030664779416
1.187935,-0.5358678,-0.3367617,1.346013486518144
1.162791,-0.4671361,-0.05241398,1.2542114139584484
0.9884381,-0.3103311,0.3035818,1.0795726832641053
0.8300177,-0.1475377,0.4304118,0.9465469205558803
1.037711,-0.1894965,0.1440177,1.0646568183910439
1.32467,-0.2898266,-0.1552441,1.364862922623503
1.242382,-0.3215121,-0.1594603,1.293178507262822
1.052361,-0.2939261,-0.1056535,1.0977335235130883
0.8541645,-0.1828344,-0.08935241,0.8780713319864271
0.6505432,-0.1136996,-0.02680129,0.6609480790894728
0.6674657,-0.1520469,-0.06131437,0.6873050068525596
0.7456591,-0.1971599,-0.1346109,0.782942918723728
0.8060108,-0.2300426,-0.1035192,0.8445645222835494
0.9166442,-0.2464514,-0.105565,0.9550491354797407
0.8947722,-0.1896066,-0.1266974,0.9233743465264562
0.8040235,-0.0955582,-0.1124701,0.817456226065653
0.7261407,-0.07087214,-0.1130898,0.7383037852325488
0.6357728,-0.1059719,-0.0905514,0.6508737610715384
0.6627077,-0.1605322,-0.06653095,0.6851119982776775
0.7559789,-0.2323842,-0.03862244,0.7918321833105822
0.8230171,-0.2128988,0.009099474,0.8501563658297964
0.7922305,-0.09996359,0.009008497,0.7985631080097159
0.6365551,-0.04544346,-0.05370417,0.6404308247329844
0.5396939,-0.1213074,-0.1727324,0.5795010552205492
0.6038286,-0.3700981,-0.2330491,0.7455826344627268
0.9069733,-0.7191461,-0.1100689,1.1627066882087287
1.322546,-0.8995952,0.05855661,1.6005712488214112
1.525629,-0.7151061,0.1713751,1.693602670285513
1.624551,-0.2933469,0.2590471,1.6710247620424483
1.751794,0.009185667,0.24987,1.7695484203079144
1.7908,-0.06860266,0.2045932,1.803754235600104
1.798402,-0.3150974,0.2368067,1.8410903123572322
1.659831,-0.3363668,0.2302316,1.7091483734134378
1.270704,-0.2954562,0.2060718,1.3207757601083085
1.006591,-0.2672133,0.2249102,1.0654637427157858
0.8678859,-0.08657415,0.1566134,0.8861426385896305
0.6270567,0.002276849,0.07639585,0.6316974077463682
0.536009,0.04582289,0.0666849,0.5420814156720022
0.5217705,0.09827768,0.06328906,0.5347040884191143
0.4208013,0.06435937,0.06533,0.4306783852116181
0.44212,0.07814704,0.05052595,0.4518073991029409
0.5059402,-0.08753595,0.05416116,0.5163055875845118
0.5056402,-0.3183003,0.05706612,0.6002029947342685
0.5483615,-0.3443214,0.0149893,0.6476744863700437
0.7202468,-0.3822762,-0.03241354,0.8160521941469256
0.9515034,-0.4106484,-0.1240236,1.0437301768134712
0.9811855,-0.4012895,-0.1874008,1.076511638609235
0.8679769,-0.355834,-0.1648063,0.9524509703965344
0.8555743,-0.2714511,-0.08860079,0.9019662867869974
0.8727522,-0.2470199,0.0412281,0.9079730116200921
0.921866,-0.2808957,0.0767712,0.9667642594675964
1.041036,-0.4206977,0.02167451,1.1230370841895785
1.043886,-0.5149893,-0.04999246,1.1650799140691346
1.064178,-0.4488505,-0.2251553,1.1767057814731514
1.274543,-0.3605469,-0.3112491,1.3606358543708232
1.409642,-0.3106887,-0.1338531,1.4496670958710831
1.421809,-0.2595235,0.08643233,1.447882532252696
1.556255,-0.1641642,0.1513271,1.572189365433137
1.691986,-0.137181,0.05760111,1.698514980455054
1.399895,-0.1185167,-0.02403692,1.405108534144952
0.9988464,-0.05765916,0.03491643,1.0011183079980162
1.088241,-0.1595743,0.034607,1.100422680496222
1.174396,-0.3259386,-0.1186547,1.2245492532430249
1.023318,-0.3861334,-0.203209,1.112462417073296
0.9728763,-0.308265,-0.1266221,1.028371898456536
0.8554207,-0.1364156,-0.04161926,0.8672288929197398
0.8294251,-0.008878548,-0.08447052,0.8337626124225461
0.8867676,0.05759093,-0.1140042,0.8959187737990899
0.7270553,0.03849601,-0.07026278,0.7314562258244429
0.6753132,-0.01173226,-0.1004734,0.6828473241702772
0.723787,-0.04070761,-0.1042839,0.73239324319666
0.7268382,-0.149994,-0.09035696,0.747633833661694
0.7938097,-0.2529738,-0.1255807,0.8425556928257146
0.75894,-0.2510183,-0.07703408,0.80307805350186
0.7218593,-0.1972861,-0.03822905,0.7493090914393088
0.7744823,-0.1579088,-0.04867166,0.791913475461736
0.8007542,-0.1635182,-0.06708137,0.8200276829168371
0.868064,-0.1662332,-0.1122058,0.8909313814384809
0.8675752,-0.1720961,-0.09453305,0.8895168873228616
0.7723864,-0.1976172,-0.0829098,0.8015655578783559
0.7548498,-0.3056204,-0.08028993,0.8183205498553761
0.8849981,-0.5344136,0.01341647,1.0339243369491942
1.202565,-0.6301896,0.1049781,1.3617348907378302
1.589343,-0.4880344,0.1199435,1.666905873294773
1.825827,-0.3949924,0.1048964,1.8710068104418327
1.774108,-0.4695522,0.1485093,1.8411934923780635
1.615817,-0.4992962,0.1816831,1.7009321037740013
1.566543,-0.4185032,0.1502842,1.628430913495835
1.375227,-0.2887089,0.1608218,1.4143782315291233
1.097163,-0.1160595,0.1635399,1.115339300393051
1.009796,-0.1012254,0.1323641,1.0234523917554592
0.8641329,-0.1628005,0.09323796,0.8842640945145412
0.6743689,-0.06960659,0.02925447,0.6785825776378429
0.6950968,-0.07811166,0.03852234,0.7005319146743217
0.7236661,-0.1425134,0.08127418,0.7420297742027893
0.6665677,-0.1257426,0.07569352,0.6825344014099513
0.6629641,-0.2125007,0.07894276,0.700649630518505
0.6064077,-0.2313213,0.08555467,0.6546445172853653
0.4531216,-0.1756101,0.1165105,0.4997327167784995
0.344979,-0.171257,0.1621923,0.41790646401951
0.3548486,-0.112269,0.1281839,0.39364066037716433
0.5553965,-0.1073501,0.01597906,0.5659016226701806
0.8927355,-0.1166261,-0.1413398,0.9113480450549615
1.137082,-0.103512,-0.2182945,1.162464062927646
1.044741,-0.2071677,-0.09075634,1.068942901306934
0.806664,-0.2999428,0.05656463,0.8624801734155266
0.8202112,-0.3089227,0.07536408,0.8796927825866121
0.8609987,-0.3010739,0.03287061,0.9127128418427518
0.9667213,-0.3548618,-0.09996822,1.0346354981262236
1.329432,-0.4722529,-0.2642746,1.4353582508863665
1.57634,-0.4929613,-0.2414724,1.6691817033682852
1.711916,-0.3992877,-0.01692686,1.7579458401830101
1.728478,-0.2654102,0.1469062,1.7548960659670074
1.626692,-0.1221047,0.0654667,1.6325814863077983
1.61563,0.02194464,-0.0645212,1.617066742399388
1.475201,0.07802349,-0.08860762,1.4799178915449482
1.211457,-0.07125488,-0.1188101,1.2193527629996268
0.9962598,-0.2173017,-0.1199386,1.0267126597490117
0.9535687,-0.2364381,-0.1050511,0.9880445204354458
0.997369,-0.2686746,-0.1694468,1.0467297554175097
0.8708539,-0.2507846,-0.1875482,0.9254478689075955
0.8156258,-0.1656206,-0.155352,0.8466462500206328
0.7809867,-0.1248714,-0.139952,0.8031934103432685
0.7143393,-0.1251038,-0.1134865,0.7340373164772891
0.8049383,-0.1218581,-0.1294081,0.8243309527660053
0.8288895,-0.0667427,-0.1541733,0.8457433402909124
0.8916494,-0.009644118,-0.1662402,0.9070653039491688
0.9351632,-0.04367062,-0.180937,0.9535069646596318
0.8032686,-0.1071687,-0.1427286,0.8228590567427754
0.7945771,-0.1351523,-0.1020676,0.8124264317521065
0.8288904,-0.1543067,-0.08664072,0.8475709216573964
0.8956758,-0.1610913,-0.1012367,0.9156606440533632
0.9934646,-0.1897756,-0.1230031,1.0188799990274273
0.9217084,-0.2532769,-0.05708295,0.9575771644545793
0.8546169,-0.2510132,0.0316134,0.8912783400259484
0.8523219,-0.1879554,0.0536567,0.87444776577201
0.8997977,-0.1277086,-0.01411078,0.9089249152440803
0.9693188,-0.1006418,-0.1514939,0.9862343076966498
0.9114263,-0.1732052,-0.2697031,0.9661457984115751
0.8788353,-0.3292457,-0.3215682,0.9920485485830922
0.9800981,-0.5328358,-0.2536237,1.1440416323661216
1.146506,-0.7162899,-0.1646594,1.361859004040569
1.420198,-0.7287967,-0.1866305,1.6071521187072306
1.702414,-0.5818942,-0.175524,1.8076567599977713
1.724063,-0.3917482,-0.1017466,1.7709354168867366
1.555897,-0.2606618,-0.07377261,1.5793044185889091
1.451734,-0.2413285,-0.07694547,1.4736660602123437
1.322884,-0.2328392,-0.09735215,1.3467418504012796
1.163038,-0.2119576,-0.0905762,1.1856590832310103
1.047077,-0.2209942,-0.03424596,1.070692050096087
0.9142033,-0.1961812,0.03544456,0.935687476563582
0.8817713,-0.1632011,0.06312445,0.898966028686681
0.883408,-0.1590421,0.004642278,0.8976222116132373
0.8387809,-0.1890585,-0.02705835,0.8602491900209978
0.8526037,-0.2937585,0.009899332,0.9018453982529301
0.8027266,-0.3657064,0.04678026,0.8833456617169677
0.725981,-0.343394,0.1036208,0.8097562113313117
0.7112144,-0.2997128,0.1246923,0.7817939977580347
0.6587057,-0.2315674,0.07931789,0.7027147270616306
0.5892184,-0.1462291,0.05323865,0.6094223711344969
0.5589259,-0.08186314,0.06318777,0.568412200483982
0.6451498,-0.07560546,0.06539088,0.6528479280881774
0.7679472,-0.1134809,0.03063566,0.7768908290849401
0.7904855,-0.1230244,-0.01321147,0.8001105371416944
0.7853441,-0.1303923,-0.02780938,0.7965807359709902
0.7848573,-0.1817296,0.001226171,0.8056228226501352
0.8444426,-0.268665,0.04573709,0.8873308674454125
0.9854768,-0.3589151,0.05384533,1.0501827897604583
1.107953,-0.4184382,0.06432828,1.1860811544898597
1.135385,-0.4461895,0.08924755,1.22317181676012
1.064807,-0.4256993,0.08740898,1.1500757240521733
1.051347,-0.3988902,0.06134521,1.1261470334085972
1.135019,-0.405059,-0.04701487,1.2060478107617114
1.268156,-0.4237054,-0.253371,1.3608610399178016
1.420712,-0.449313,-0.3582204,1.5325229570512668
1.413877,-0.3902619,-0.1740419,1.4770386266703455
1.265092,-0.2912609,0.01818514,1.298314823010825
1.20752,-0.3064113,-0.1310992,1.2526689248992848
1.376454,-0.3501164,-0.3024723,1.4521351865209557
1.558118,-0.3541193,-0.265434,1.6197491746910968
1.437252,-0.3264672,-0.1893852,1.4859814595609462
1.262398,-0.2622329,-0.07184022,1.2913465148658039
1.080491,-0.2104519,-0.06929332,1.1029743276664388
0.7001102,-0.1516316,-0.1294512,0.7279450854590888
0.6413602,-0.1443725,-0.06326119,0.6604455337577098
0.8505075,-0.1760133,-0.1277872,0.8778799791639971
0.8495114,-0.09505657,-0.2215843,0.8830656670013929
0.9617172,-0.03623265,-0.2061038,0.9842212932447166
1.00495,-0.06898249,-0.1865352,1.0244405630712015
0.823486,-0.05792059,-0.07931697,0.8293221139412171
0.8496881,-0.06284679,-0.06631699,0.8545861743894375
0.7811764,-0.1198788,-0.113842,0.7984782373805813
0.6603081,-0.1576067,-0.08456392,0.684103585267806
0.8067189,-0.1321293,-0.1538492,0.8318191581565911
0.9182425,-0.09900305,-0.1999683,0.9449646626834479
0.9722907,-0.1780626,-0.1722358,1.003354705787983
0.8710533,-0.2960057,-0.1058472,0.9260436575136293
0.6428864,-0.3272478,0.01826532,0.7216146255616652
0.5919984,-0.2193862,0.03888254,0.6325379532248255
0.6146729,-0.05104064,0.00763686,0.6168356690048649
0.7657098,-0.03641543,-0.01294807,0.7666845726078292
1.0443,-0.09620826,-0.07140621,1.0511504964175167
1.188617,-0.08684122,-0.1083311,1.1966985407391866
1.13469,-0.1050981,-0.1049934,1.1443734621036832
1.031476,-0.2046031,-0.08923516,1.0553521122761993
1.068109,-0.4022562,-0.07260359,1.1436512438677833
1.231652,-0.5639306,-0.04232879,1.3552771292924648
1.556353,-0.5478569,-0.06232069,1.6511407304917065
1.743462,-0.5015783,-0.1146643,1.817797689009803
1.463786,-0.4665081,-0.0619237,1.53757400009993
1.210524,-0.3879203,0.09818742,1.2749475609507812
1.215565,-0.3392551,0.2556396,1.2876505337975712
1.312167,-0.2901594,0.2004717,1.3587360361005556
1.41203,-0.2280661,0.03184688,1.430684133774798
1.269305,-0.2337436,0.028213,1.2909559353188473
0.9593946,-0.2312255,0.05247402,0.9882594563849973
0.675937,-0.159424,0.07796401,0.6988456386071821
0.5666754,-0.1144766,0.1347176,0.5936116008489727
0.7156656,-0.121428,0.1046628,0.7334005126199463
0.7702643,-0.1392149,0.1062743,0.7899253807018672
0.6521564,-0.1497704,0.1184774,0.679541048861568
0.5485464,-0.1549177,0.1176974,0.5820269106261411
0.4265368,-0.1751191,0.159251,0.487812691450366
0.4180342,-0.2044973,0.1170363,0.47986376566127603
0.5010892,-0.2240707,0.05430935,0.5515864124981258
0.5841726,-0.1663221,-0.007427593,0.6074338125894406
0.8449315,-0.06880869,-0.09177072,0.8526815000696828
1.047208,-0.09280789,-0.06346952,1.053226604145225
0.9831966,-0.1955175,0.04268132,1.003356537894059
0.9728624,-0.2784756,0.1335373,1.0207066765826558
1.058175,-0.3220764,0.1194449,1.112535222902165
1.138993,-0.3679714,0.000414784,1.1969578845192201
1.235293,-0.4864158,-0.1449475,1.335499496104319
1.248708,-0.5110954,-0.3224687,1.3872549295803025
1.293281,-0.4298613,-0.3618005,1.4100553478494877
1.383898,-0.3701537,-0.1909747,1.4452192816551337
1.251842,-0.199708,0.02369206,1.2678931311175416
1.15554,-0.06795775,0.1407328,1.1660603193578376
1.448806,-0.1303128,-0.02024361,1.4547955372579586
1.688062,-0.2318615,-0.2293066,1.7192715282438111
1.465435,-0.3290691,-0.1374038,1.5081995942362039
1.113308,-0.2263915,0.0194155,1.1362591147165773
0.9767295,-0.02342935,0.06533183,0.979192370590591
1.021159,-0.07031136,-0.05037502,1.0248156093981249
1.067922,-0.1170941,-0.268518,1.1073709146725907
0.9610444,-0.107812,-0.2069478,0.988967723457242
0.807654,-0.2110053,-0.05723422,0.8367221619409267
0.7487097,-0.2328147,-0.0749024,0.7876415865963021
0.7600733,-0.1803993,-0.0712966,0.7844351687583493
0.8082974,-0.1231368,-0.1428421,0.8300067613540326
0.7616697,-0.07553935,-0.1764788,0.7854881871460274
0.6929154,-0.09605523,-0.1107949,0.7082611584955953
0.7073678,-0.1072707,-0.1345245,0.7279924784333832
0.6856915,-0.149195,-0.09258322,0.7078161016979047
0.7106886,-0.2250351,-0.06751304,0.7485165949877207
0.7417294,-0.2319882,-0.07724525,0.7809915853651449
0.7599096,-0.1681584,0.004708772,0.778307150292523
0.8620069,-0.0533064,0.00940253,0.8637047386109277
0.8698688,0.009702097,-0.02352307,0.8702408831592907
0.8459977,-0.04252348,-0.1250983,0.8562534317709275
0.8761383,-0.2286177,-0.2576777,0.9414256054290588
0.9502864,-0.5260623,-0.1710705,1.0995685069501127
1.185933,-0.6620797,0.03416324,1.3586588006590865
1.46992,-0.5288807,0.1858394,1.5731865381526915
1.682005,-0.3731918,0.1721299,1.7314853860446673
1.728912,-0.2978743,0.1319206,1.7593376159932608
1.639665,-0.291103,0.2243611,1.680351204964965
1.566489,-0.3338067,0.1818711,1.611952789972802
1.426002,-0.2853454,0.104045,1.4579880189254506
1.280125,-0.2298803,0.1730129,1.3120588521554588
1.168852,-0.2078419,0.1628617,1.198305965363813
0.9783074,-0.09442007,0.1535239,0.9947713839796434
0.9038793,-0.09589073,0.1772929,0.9260807704832408
0.8902393,-0.1413844,0.105507,0.9075501566728144
0.7198003,-0.07143421,0.07145794,0.7268573143523133
0.7113437,-0.1088305,0.07297234,0.7233110670140583
0.8041897,-0.1630287,0.07185738,0.8236886023675722
0.6676055,-0.1888934,0.0831341,0.6987768590734956
0.60264,-0.2307852,0.07064999,0.649175014326676
0.5389612,-0.169336,0.09590938,0.5730204753526914
0.3311763,-0.1497069,0.1099446,0.3797074040079545
0.3740568,-0.1772521,0.07694693,0.4210197461130237
0.5953603,-0.1692897,0.02152505,0.6193353026589736
0.8391316,-0.2023031,-0.0631345,0.8654792611486539
1.082552,-0.2531905,-0.0883244,1.1152692327996905
1.148204,-0.3007631,-0.07628372,1.1893906313212024
1.062651,-0.2708027,-0.01448909,1.0967092521982835
0.9351686,-0.2286139,0.1098969,0.968959211901502
0.9490768,-0.3352539,0.09875917,1.0113828767694948
1.050305,-0.4569893,-0.03624099,1.145990062215057
1.093201,-0.4768856,-0.1771234,1.2057698788392088
1.167857,-0.4011075,-0.2593854,1.2617678014351175
1.171642,-0.2745739,-0.150809,1.2127980694271452
1.224351,-0.1962755,-0.00899549,1.2400162748696446
1.425348,-0.1747519,-0.03462696,1.4364380160718568
1.563548,-0.2520139,-0.1259728,1.588729838719299
1.713913,-0.3898172,-0.2316086,1.7728783840350697
1.735918,-0.3946315,-0.2319739,1.7952596508019278
1.433422,-0.2501791,-0.02032001,1.455232323365314
1.099354,-0.09733163,0.1260053,1.1108240180796176
0.9892994,-0.08243431,0.02710043,0.9930977553150149
0.9917993,-0.1723279,-0.1001528,1.0116290525418594
0.8707577,-0.1979106,-0.09776678,0.8983016870590961
0.77909,-0.1877114,-0.1021307,0.8078660023001648
0.8138594,-0.1688205,-0.1278964,0.8409666897812125
0.7705882,-0.1186237,-0.0882801,0.7846471386788714
0.7454567,-0.1088267,-0.1141104,0.761951524439672
0.7469045,-0.1043522,-0.1497999,0.7688925307252633
0.7161847,-0.0948099,-0.1390855,0.7356998151164305
0.741626,-0.1179046,-0.1635398,0.7685414008114332
0.7287263,-0.1344303,-0.1200953,0.7506906199972597
0.6978444,-0.1646739,-0.07981294,0.7214391210240915
0.674438,-0.2254322,-0.06565432,0.7141405900629808
0.6469033,-0.267333,0.0007610891,0.6999652789221106
0.7418162,-0.2265886,0.003548399,0.7756585971726628
0.8720869,-0.1235132,-0.03887079,0.8816473274734485
0.9061783,-0.03640759,-0.08596764,0.910974785121777
0.8511123,0.003686399,-0.1223952,0.8598757594745402
0.820286,-0.1030064,-0.116369,0.8348779458088229
0.9705459,-0.3802699,-0.04969084,1.0435677843018754
1.261572,-0.6396978,0.07723751,1.416595503120012
1.559908,-0.6440517,0.0889375,1.6899779405788526
1.64506,-0.386332,0.06794539,1.6911804734700115
1.461488,-0.230887,0.1540764,1.487614035275938
1.378598,-0.2960401,0.1975905,1.4238027223257652
1.5286,-0.3167349,0.229939,1.5779134642302188
1.620926,-0.2787214,0.2121749,1.658344024768073
1.515882,-0.2975746,0.127222,1.550043327708345
1.304809,-0.313412,0.1612762,1.351578196373203
1.036126,-0.266402,0.1620221,1.0820250802862243
0.8081195,-0.1798321,0.07700233,0.8314602030741393
0.7639004,-0.06382203,0.07028942,0.7697776790719625
0.7508611,-0.0170075,0.06294002,0.7536863357306276
0.6767299,-0.1014716,0.07310948,0.6881895372834728
0.6423578,-0.1886022,0.120529,0.6802364095714666
0.5621625,-0.2885449,0.1277924,0.6446826608650337
0.4917607,-0.3500539,0.1400176,0.6196541352072622
0.5129352,-0.3029399,0.1149358,0.6067003712976365
0.5685826,-0.2921901,0.04781508,0.6410518773361299
0.7973808,-0.2257374,-0.02630127,0.8291352548113081
1.073564,-0.1376241,-0.1158968,1.0885366889760997
1.036017,-0.18045,-0.09208837,1.0556389982746264
0.8158339,-0.171577,0.01728462,0.8338599267303558
0.7464026,-0.129929,0.06676427,0.7605628534686617
0.83223,-0.1461274,0.06700027,0.8476137245885256
0.9585905,-0.1433818,0.05365447,0.9707383218007162
1.044127,-0.1779072,0.06361902,1.0610841359885654
1.045303,-0.2883333,0.05007603,1.085496228679976
1.043789,-0.3769091,-0.04431914,1.110639515033636
1.022182,-0.2611512,-0.1801416,1.0702836009376204
0.9661003,-0.3298434,-0.1737412,1.035534867960075
0.9067036,-0.2696567,-0.1871046,0.9642791532792825
0.8543257,-0.1656049,-0.2283039,0.8996777508306572
0.7432684,-0.17013,-0.1894351,0.7856702797297159
0.7501356,-0.1707558,-0.1678038,0.7874129011614174
0.8158657,-0.1931858,-0.1642059,0.8543542423099099
0.8179946,-0.1868242,-0.1761826,0.8573556764129809
0.8594153,-0.1356544,-0.2267675,0.8991219456612657
0.8293791,-0.1144411,-0.224284,0.866758195543613
0.7843731,-0.06608672,-0.2018503,0.8126205499333982
0.77769,-0.07750757,-0.1724537,0.8003433251742622
0.6832972,-0.1219297,-0.1122204,0.7031040701390443
0.6071927,-0.1483422,-0.05217448,0.6272244889968825
0.6202664,-0.2474914,-0.0250669,0.6682894204747896
0.7375027,-0.3020996,-0.08828271,0.8018530025586947
0.9087596,-0.2947866,-0.1771181,0.9716552739934724
0.9344587,-0.2721298,-0.217072,0.9971900236352799
0.8240783,-0.2117227,-0.2140941,0.8773641375626143
0.7755802,-0.2253904,-0.1731953,0.8260278996415861
0.8861124,-0.366314,-0.1045077,0.9645221570233885
1.106804,-0.5663544,0.009700886,1.2433288012446848
1.391753,-0.6251808,0.04408181,1.526358624855416
1.653047,-0.5201829,-0.0455354,1.7335593749031413
1.738171,-0.4789257,-0.06110556,1.803979528937178
1.702622,-0.4435229,-0.01047927,1.7594726632738977
1.626423,-0.3079913,0.005756152,1.6553378957453178
1.456197,-0.1459467,-0.02172104,1.463653628980768
1.260088,-0.05378816,-0.05912458,1.2626205486449056
1.065558,-0.1071535,-0.001455301,1.0709331640337088
0.8645032,-0.1934413,0.09908359,0.891405001760265
0.7942276,-0.2486541,0.1471484,0.8451502787499571
0.8521942,-0.2528562,0.1182352,0.8967445427272586
0.8943956,-0.1682501,0.02202532,0.9103497680399947
0.8435391,-0.1457898,-0.01535943,0.8561826855892234
0.7498502,-0.1534453,0.009060888,0.7654429320488096
0.6772466,-0.1229262,0.03818883,0.6893708686873626
0.5790838,-0.1251398,0.07392448,0.5970450952061749
0.5224407,-0.1076639,0.08771439,0.5405826621274235
0.5204022,-0.1317289,0.1013405,0.5462974005066289
0.5212562,-0.1855544,0.07046203,0.5577664018830113
0.6624269,-0.181377,-0.0311386,0.687514819027612
0.8991041,-0.1641741,-0.1524745,0.9266012038076952
1.051025,-0.1433906,-0.2264649,1.084666200139642
1.040605,-0.2242974,-0.1416156,1.0738822411396511
0.9197045,-0.3215091,-0.03301254,0.974840651850502
0.8661156,-0.277302,-0.02823857,0.909862653702747
0.914298,-0.2764907,-0.02447307,0.9555034647481478
0.9946682,-0.3505302,-0.1216682,1.061621118900015
1.070772,-0.377239,-0.3607078,1.1912061350101586
1.255598,-0.3614102,-0.5101174,1.4026273318493405
1.488232,-0.3143265,-0.4632457,1.59004157586987
1.456518,-0.2359656,-0.2611908,1.498447557544808
1.385115,-0.1682792,-0.08367805,1.3978066634658182
1.488831,-0.2029517,-0.1506734,1.51013562720752
1.588294,-0.2528882,-0.3071069,1.6373591298682308
1.666767,-0.2082868,-0.3242994,1.7107500472551798
1.475685,-0.1675739,-0.2784424,1.5110451354291075
1.096929,-0.1202143,-0.2076739,1.122868272642299
1.063393,-0.08661559,-0.1741856,1.0810400344702356
1.10749,-0.1847784,-0.216058,1.1433976633571366
0.9302613,-0.2961726,-0.186352,0.9938970586396008
0.7974596,-0.3263043,-0.1553884,0.8755351875768387
0.7485479,-0.3154308,-0.1661545,0.8291126980412857
0.7610449,-0.2713215,-0.1728159,0.8262384834120655
0.7863426,-0.2227992,-0.2559408,0.8564343881465993
0.7645169,-0.1631651,-0.2939173,0.8351624509536513
0.7506879,-0.1152184,-0.2446728,0.7979175282977621
0.6649443,-0.1052812,-0.174925,0.6955816334557218
0.609015,-0.0837128,-0.05818988,0.6174894049643721
0.6624401,-0.06613567,0.004287449,0.6657470954899364
0.695391,-0.09044884,-0.00595012,0.7012738690885039
0.7633674,-0.1490452,-0.03582833,0.7786064013713148
0.8624069,-0.2153197,-0.1067726,0.8952701393917146
0.9561772,-0.2867074,-0.2032918,1.0187264240029508
1.007188,-0.3077716,-0.2371538,1.0795336724553801
0.9090202,-0.2132453,-0.1900846,0.9528501651032495
0.7590881,-0.1565521,-0.1787369,0.7954056719672233
0.688974,-0.2444877,-0.1336003,0.7431745745700535
0.7543258,-0.4144273,0.0003567794,0.8606727176008719
0.917356,-0.5558194,0.07601367,1.0752931294206378
1.236388,-0.5381457,0.0622288,1.3498624020699037
1.750513,-0.5012654,0.032639,1.821161186915414
1.892078,-0.5085567,0.06792122,1.9604087245585238
1.615962,-0.3523561,0.05272069,1.654771125505061
1.584073,-0.1372721,-0.1105386,1.5938474459173846
1.489243,-0.02537616,-0.2043429,1.503411016098311
1.088085,0.01175978,-0.09448367,1.0922428409228953
0.9098017,-0.04348872,0.06556212,0.9131970179917491
0.8791152,-0.1398758,0.09305762,0.8950242985175008
0.7867631,-0.2308268,0.1345074,0.8308847259244871
0.7869072,-0.2365576,0.1811732,0.8414310238681719
0.8899913,-0.1665363,0.03958368,0.9063033272672689
0.9234584,-0.1905195,-0.02483195,0.9432336519397579
0.7995696,-0.1836772,-0.01701794,0.820572037864954
0.6735906,-0.145304,-0.01614132,0.6892735966477335
0.5866396,-0.195364,0.09317858,0.6252962182477809
0.5716971,-0.1822747,0.06273592,0.6033220003171991
0.6453567,-0.1917397,0.0003409915,0.6732380701254075
0.720893,-0.2296822,-0.02489636,0.7570075687779413
0.8592522,-0.2182844,-0.1433479,0.8980595987586848
0.9167914,-0.254567,-0.1528298,0.9636741027811218
0.8593552,-0.2118884,-0.1448452,0.8968657568357931
0.8507402,-0.1648121,-0.1274323,0.8758772215817351
0.8405784,-0.217803,-0.06310482,0.8706275964284571
0.8429187,-0.226095,-0.07235373,0.875708824941032
0.8409641,-0.2329056,-0.01551919,0.872757974044595
0.8361723,-0.2636754,0.02252151,0.8770496281654363
0.906902,-0.3522057,-0.06086525,0.9747946816504758
1.083068,-0.5440998,-0.2569963,1.2390028180749753
1.33864,-0.6417773,-0.4900951,1.5633388498464753
1.440994,-0.4553229,-0.4112471,1.5661758613127774
1.407463,-0.1584816,-0.1552672,1.4248425938690208
1.511486,-0.08219096,-0.1339447,1.5196336613670454
1.662598,-0.1385229,-0.3971205,1.7149709603805714
1.588605,-0.1538562,-0.622573,1.7131651165700403
1.262025,-0.1769528,-0.2696478,1.3025856325392509
0.9985184,-0.1822096,0.1378858,1.0243299406501598
1.123778,-0.2190395,-0.1662394,1.1569316461903054
1.270959,-0.2937615,-0.3509194,1.3508430789176107
0.9549388,-0.300674,-0.1368637,1.0104675345596859
0.6791295,-0.2828383,-0.192364,0.7604066610788862
0.7506,-0.2975498,-0.2034853,0.83267191065637
0.7706118,-0.3176901,-0.140932,0.8453587253712177
0.7647512,-0.2963612,-0.2238179,0.8501581094874587
0.7250097,-0.2052963,-0.1669029,0.7717786042099055
0.6387582,-0.0841416,-0.1494471,0.6613821003143417
0.6982369,-0.05839758,-0.1849431,0.7246716470989303
0.7865333,-0.287479,-0.03981024,0.8383696455971839
0.7615274,-0.1621586,-0.04941571,0.7801674851591317
0.8194634,-0.1116241,-0.01346069,0.8271404921871773
0.947264,-0.2205459,0.005375683,0.9726142491607485
0.9861406,-0.3877197,-0.03320519,1.0601426476561473
0.9604585,-0.342315,-0.07356029,1.022287242272021
0.9855136,-0.3429232,-0.04050866,1.0442577882966426
1.015013,-0.4867858,-0.02242603,1.1259283867423366
1.125475,-0.5440867,-0.118134,1.2556591713908236
1.269989,-0.5761224,-0.2381228,1.414740805866078
1.258435,-0.4752862,-0.2875052,1.3755780098425825
1.158091,-0.241016,-0.2272301,1.2045318571474188
1.17756,-0.1569869,-0.1995105,1.2046148263996503
1.486315,-0.2583745,-0.3430028,1.547107165739688
1.761068,-0.3687736,-0.441787,1.852708887561659
1.37413,-0.2739748,-0.2978819,1.4324905145524176
0.683484,-0.1292545,-0.007764157,0.6956417081804186
0.5640815,-0.1174673,0.1238967,0.5893529481409506
0.9199781,-0.154538,-0.1351795,0.9426108397126887
1.146508,-0.2529581,-0.4269367,1.2492971384848763
1.013615,-0.2325861,-0.3370883,1.093224672304417
0.8351357,-0.1255143,-0.2063484,0.8693590392361146
0.8860043,-0.08005603,-0.2405823,0.9215706324699918
0.8924125,0.03754122,-0.1936186,0.91394615575607
0.8871529,0.04247158,-0.1908872,0.9084503432824199
0.9389253,0.003891517,-0.1975777,0.9594961231927627
0.8864253,0.05508086,-0.09561022,0.8932664931513316
0.9519641,-0.007597556,-0.1252081,0.9601929175179293
0.9905127,-0.01471272,-0.1775261,1.0064031941385612
0.8857367,-0.02362165,-0.202005,0.9087868309458564
0.8049666,-0.1425468,-0.2478215,0.8542284900236294
0.6242656,-0.17359,-0.1578128,0.6668927254717958
0.4695048,-0.1945854,-0.06294268,0.5121132844222872
0.3411637,-0.1903199,0.005897126,0.39070335374649634
0.2654106,-0.1495342,0.03805557,0.30700405529898933
0.5047118,-0.1456835,-0.05227362,0.5279111805781295
0.8937756,-0.1282956,-0.1630522,0.9175405190287566
1.190435,-0.1171376,-0.2896371,1.230750322468034
1.182511,-0.04373538,-0.2844082,1.2170181070189485
0.9287626,0.003064234,-0.1644159,0.9432083252715577
0.8090796,-0.1675271,-0.1155295,0.8342794458338405
0.9853776,-0.4960491,-0.01459338,1.1032890332693397
1.405332,-0.8219175,0.03641369,1.6284447684369483
1.784581,-0.9103342,-0.006349843,2.003366671819406
1.897548,-0.7880334,0.02192104,2.0547908856655566
1.746528,-0.61465,0.005837581,1.851536862888755
1.586665,-0.2586567,-0.07419745,1.6093210904808253
1.568149,0.1285323,-0.1184809,1.5778623393721964
1.322457,0.1733892,-0.06225665,1.3352274046000039
0.9618934,0.01278767,0.05689478,0.9636594073939387
0.8306967,-0.1375989,0.05757375,0.8439817541636563
0.7503063,-0.3229753,0.01145847,0.8169479082319269
0.7017337,-0.3812061,0.01301744,0.7986975210535298
0.6617299,-0.2900632,0.01004508,0.7225815000264374
0.5599149,-0.268476,0.02877378,0.6216204535192663
0.5086243,-0.1982983,0.03639559,0.5471247876900005
0.485568,-0.0645704,0.05542882,0.492968531720588
0.4753074,-0.05928349,0.09712764,0.4887386163720948
0.509261,-0.1102738,0.08126459,0.5273623144246354
0.5991213,-0.1410795,0.01313461,0.6156478501658169
0.760165,-0.1808007,-0.1229963,0.7909916625092706
0.8881623,-0.296559,-0.1994874,0.9573790964821877
0.8335241,-0.4287127,-0.08721611,0.941362658206513
0.7312868,-0.3666355,0.01901667,0.8182686645915135
0.7724195,-0.2885409,0.007562912,0.8245877349263568
0.8480917,-0.4017438,-0.07768288,0.9416433732005044
1.081891,-0.5111484,-0.2689229,1.2264095355336935
1.508272,-0.5872467,-0.4702576,1.6854926054428867
1.682715,-0.5930024,-0.4500953,1.8400454876749244
1.593622,-0.3741911,-0.2209517,1.6518080130378652
1.57704,-0.1180268,-0.09555609,1.5843347037335034
1.659887,-0.02330606,-0.2445922,1.6779729942709338
1.631035,-0.068639,-0.3875941,1.6778604441075575
1.377888,-0.09592529,-0.2504076,1.4037382120407438
1.05929,-0.0561425,-0.1396785,1.0699333473485626
0.9177997,-0.1210945,-0.2233463,0.9523149358137937
0.9267653,-0.1934062,-0.2062106,0.9689286305166599
0.7986755,-0.1996157,-0.1789464,0.8424670890068644
0.7049409,-0.2308888,-0.2251516,0.7752061360959484
0.8020211,-0.2088758,-0.2170685,0.8567296413473156
0.7772485,-0.1801504,-0.265572,0.8408911252691457
0.7622497,-0.1417708,-0.2849971,0.8260429237582876
0.7585476,-0.09719497,-0.2142612,0.7941971955909319
0.6533126,-0.1295937,-0.1570242,0.6843014538813212
0.7533023,-0.1133172,-0.09650606,0.7678662400560748
0.928573,-0.08683887,-0.1160684,0.9398194928551105
1.005466,-0.09653048,-0.1758638,1.0252843931687785
0.9544915,-0.08488375,-0.1862559,0.976191853516061
0.8043,-0.1165122,-0.1821456,0.8328568918777103
0.8555567,-0.1342679,-0.1494718,0.8788327229231624
0.9842486,-0.1110586,-0.1506483,1.0018853375156311
1.007923,-0.1085058,-0.1728967,1.0283849237681042
0.8719689,-0.1494362,-0.1935157,0.9055988441822019
0.6518732,-0.2723684,-0.24822,0.7488233320328634
0.8052071,-0.5693694,-0.2236234,1.0112108645452391
1.137417,-0.977044,-0.1433411,1.5062798812884044
1.341825,-1.051152,-0.09337794,1.7070835648578084
1.490434,-0.7962222,-0.07413336,1.6914074184517842
1.409206,-0.4890661,-0.1308977,1.497391534793255
1.386388,-0.01405928,-0.1666185,1.3964351307670428
1.50752,0.07444225,-0.1401944,1.515853775525998
1.526575,-0.3663915,-0.1540127,1.577464381106128
1.661164,-0.4426715,-0.1887884,1.7294695579231254
1.624373,-0.3277547,-0.2115884,1.6705629103735213
1.31375,-0.2752479,-0.1890819,1.3555266260247416
1.068097,-0.0831255,-0.1343689,1.079720357984631
0.7680341,-0.06511713,-0.1123416,0.7789334082402725
0.5636254,-0.07161181,-0.06428396,0.5717816631983905
0.5642132,-0.0993487,0.03512206,0.5739688653094117
0.7037848,-0.2969571,0.09095132,0.7692650431166052
0.9616866,-0.3629263,-0.02492156,1.0281914704976323
1.068335,-0.4379787,-0.1856351,1.1694551741006152
1.061155,-0.4899342,-0.09632436,1.1727590701776942
0.9418427,-0.3950313,0.05847131,1.0230035648110403
0.7909986,-0.3346406,0.1068494,0.8654940269295219
0.9079255,-0.2544904,0.1740841,0.9588531436644613
1.016249,-0.1831922,0.1325339,1.0410987689893068
0.9906493,-0.1366463,0.05745705,1.0016783712793655
0.9705982,-0.1180723,0.06107909,0.9796594250584016
0.9349449,-0.160729,0.02627723,0.9490238512774497
0.9813604,-0.1767982,0.03404481,0.9977398896001584
1.02562,-0.2077628,0.02112761,1.0466652479986864
0.9698622,-0.2181076,0.0329687,0.9946308598401168
0.9350431,-0.2018177,0.1434358,0.9672692549711999
0.9954284,-0.2669127,0.1266059,1.0383396086361436
1.184137,-0.4051453,0.05469727,1.2527230101768478
1.43582,-0.575345,-0.110576,1.5507507837176804
1.455081,-0.6065543,-0.3117363,1.6069686854905356
1.105795,-0.443162,-0.1567191,1.2015556651998318
0.7649724,-0.2817106,0.06110361,0.8174822848656429
0.7347539,-0.2091383,0.01005478,0.7640047255697757
0.8765004,-0.2127618,-0.1362773,0.912190789930862
0.9417488,-0.2418297,-0.2769385,1.0109734610195167
0.9126749,-0.3132948,-0.2678227,1.0014280320783615
0.9714528,-0.4837354,-0.160993,1.0971049292980137
1.03004,-0.5501112,-0.1622804,1.1789570230460482
0.9784767,-0.3933343,-0.1423963,1.0641453050467637
0.9573527,-0.2357543,-0.102347,0.9912513256358247
0.9677487,-0.1988114,-0.1560557,1.0002084285908313
0.9389693,-0.2046697,-0.1755495,0.9769189625505433
0.8903066,-0.2030262,-0.1776323,0.9302788366362474
0.8930289,-0.1988713,-0.1906309,0.9345536636457588
0.949849,-0.1878239,-0.1945203,0.9875875086919134
0.9957517,-0.175067,-0.2481369,1.041029213655169
1.015316,-0.1934586,-0.2522854,1.0639270335991657
0.955861,-0.2132082,-0.2001358,0.9995910795469715
0.8334925,-0.1940083,-0.1520912,0.8691839282583289
0.7133821,-0.1571225,-0.1233339,0.7408189734988366
0.6566282,-0.1410603,-0.155458,0.6893662241764751
0.7075344,-0.2027484,-0.165005,0.7542801143546872
0.7473162,-0.2904134,-0.1475333,0.8152223747486879
0.7691751,-0.2691022,-0.1011887,0.8211488790180134
0.7989482,-0.1767503,-0.01995846,0.8185091538638414
0.7587113,-0.102901,-0.04756143,0.7671333275072431
0.7626007,-0.0805412,-0.1479811,0.7809898325171334
0.8555304,-0.1591937,-0.2198478,0.897556658160748
0.9076316,-0.2320307,-0.2470216,0.9688410798101048
0.8370905,-0.232058,-0.2084244,0.8933152585003852
0.7121005,-0.3028716,-0.1111258,0.7817718795226969
0.7376949,-0.4329791,0.05737225,0.8572958891729754
0.96876,-0.501527,0.1269766,1.0982478437386343
1.427335,-0.4658605,-0.01849385,1.5015502756062058
1.896269,-0.4250016,-0.08936759,1.9453660443489724
1.875916,-0.5375556,0.01030371,1.951443831778697
1.576989,-0.6029967,0.05697629,1.6893032954310052
1.433816,-0.40971,0.002768683,1.4912069848151712
1.349025,-0.1701686,-0.08484455,1.3623598646156831
1.2718,-0.0653511,-0.1459451,1.2818135505935409
1.116339,-0.06278604,-0.104248,1.122952579249846
0.8249718,-0.1020758,0.04720384,0.8326020311358997
0.5945097,-0.1446429,0.1635764,0.6333408170578145
0.6194853,-0.1531184,0.1164167,0.6486602572792171
0.8406477,-0.1713818,0.0150773,0.8580720260338406
0.8781549,-0.2445315,-0.01726657,0.9117290262604482
0.7809584,-0.2443651,0.002426864,0.8183008091756018
0.6583072,-0.1998019,0.05450027,0.690115532534606
0.4000749,-0.2011392,0.08978296,0.4567032770771539
0.4127173,-0.1610335,0.04597239,0.44539961661843863
0.622963,-0.1500821,-0.05075476,0.6427935763307437
0.7910614,-0.2200513,-0.1433817,0.8335220603538577
1.049096,-0.2987242,-0.1706573,1.1040663380997222
1.026697,-0.3439591,-0.09330211,1.0867933915939414
0.8501004,-0.3272217,-0.006867487,0.9109291374243911
0.870759,-0.3673163,-0.0134886,0.9451584219889542
0.9523196,-0.4843653,-0.1222881,1.0753960869325592
1.146996,-0.5352468,-0.2958745,1.2998579463450957
1.30591,-0.4729905,-0.3917958,1.4431302401681871
1.377817,-0.3506155,-0.3572188,1.465918205563561
1.46884,-0.2895939,-0.3018419,1.527240683426427
1.543578,-0.268747,-0.26657,1.5893135489867944
1.648222,-0.2115954,-0.2515254,1.6806764713740479
1.44789,-0.1599986,-0.2042553,1.4709538509688362
1.14131,-0.1192291,-0.1201303,1.153791741764908
1.270666,-0.1215231,-0.1689491,1.2875961112788512
1.296259,-0.1984044,-0.2786078,1.340624484052563
1.045852,-0.2722183,-0.2623014,1.1120751922423457
0.8977738,-0.2118892,-0.2148571,0.9471316711331588
0.7970536,-0.06168378,-0.1810005,0.8196709772758205
0.8583352,-0.005529295,-0.1752581,0.8760623780746705
0.9119087,-0.005335178,-0.2025481,0.9341475654700342
0.7572597,-0.04535755,-0.1559037,0.7744711255171379
0.6745058,-0.1203608,-0.1145842,0.6946757051314808
0.6524821,-0.1102586,-0.100711,0.6693523401134637
0.6976801,-0.1205584,-0.0959089,0.714486085830774
0.7748748,-0.1805616,-0.18392,0.8166149725970006
0.7170379,-0.220791,-0.2205839,0.7820161588206601
0.7119466,-0.2519618,-0.1431309,0.7686606302170094
0.756649,-0.2294385,-0.08028318,0.794735882840433
0.8023742,-0.2119538,-0.1052698,0.8365467715269242
0.8899356,-0.1814094,-0.1731142,0.9245881617224828
0.8389187,-0.1077636,-0.1758862,0.8639059752340471
0.788458,-0.1123067,-0.1642786,0.813182802970433
0.9275882,-0.2317536,-0.115407,0.9630412117563816
1.134227,-0.4542099,-0.02296767,1.222008606619544
1.384205,-0.5983515,-0.01893833,1.5081136097524082
1.637084,-0.5565263,-0.07119972,1.7305591425246836
1.771773,-0.5671121,-0.115757,1.8639193599896995
1.766659,-0.6111488,-0.05642526,1.8702327897854074
1.648191,-0.4903306,0.02088591,1.7197075015867926
1.496236,-0.3097492,-0.04152603,1.5285258080137871
1.351943,-0.1334889,-0.05684,1.359705831153272
1.123504,-0.004788252,-0.01589043,1.1236265710363031
0.8675469,-0.08374472,0.005882757,0.8715993395232752
0.736855,-0.2154834,0.07821785,0.7716906237341378
0.7195936,-0.2470202,0.09829041,0.7671342340600946
0.794415,-0.273377,0.04889585,0.8415586613547641
0.8333619,-0.2575364,0.006670092,0.8722737780214755
0.7379881,-0.234112,-0.005374086,0.774250440804489
0.6581298,-0.2266904,0.03733194,0.6970775027530035
0.6075745,-0.165673,0.08206234,0.6350815251804492
0.5607762,-0.1277156,0.07956636,0.5806134915875186
0.54289,-0.0925321,0.06057527,0.5540407069575148
0.5363972,-0.0792401,0.05623038,0.5451264121750059
0.6440672,-0.1374287,0.01844653,0.6588243166190596
0.8709299,-0.1860443,-0.09788393,0.895942317355724
1.082462,-0.2358253,-0.2527481,1.1363182457470706
1.116768,-0.2370455,-0.3088734,1.1826935833603773
0.9877831,-0.2198937,-0.1462276,1.0224730817713785
0.9458114,-0.2789712,0.05717009,0.9877512611938332
0.9988804,-0.3456047,0.04647506,1.0580002804197424
1.06379,-0.4383674,-0.1584627,1.1614325502473444
1.162051,-0.4889497,-0.357094,1.3103245630633236
1.291596,-0.4707355,-0.4249176,1.4388770291327921
1.436176,-0.5033504,-0.4532079,1.587879255100516
1.437089,-0.435949,-0.3480257,1.541557073994502
1.40525,-0.2320963,-0.1006576,1.427840399838669
1.557063,-0.07819197,-0.1504347,1.566266187180701
1.652812,-0.04272982,-0.3222928,1.6844838953795527
1.579982,-0.1491562,-0.2691703,1.6096718121171565
1.336087,-0.2381171,-0.235126,1.3773570563791402
0.9561347,-0.1953585,-0.1610025,0.9890805392244809
0.8345535,-0.2019291,-0.1310438,0.8685777934690133
0.8755754,-0.264605,-0.2446249,0.9468312567771355
0.7800607,-0.2568875,-0.2086025,0.8473493295843162
0.7558216,-0.2269642,-0.1993532,0.8139537686247542
0.7608269,-0.1727934,-0.2047768,0.8066279617428409
0.7697931,-0.08623483,-0.1480841,0.7886360145121125
0.8347444,-0.06568567,-0.2209051,0.8659745283671564
0.7052549,-0.07862666,-0.209773,0.7399806329666782
0.5476857,-0.06719739,-0.1357092,0.568235956422983
0.5579745,-0.09758751,-0.07662424,0.5716031306018431
0.6287247,-0.1673445,-0.03133265,0.6513683021350997
0.7645788,-0.206124,-0.1171763,0.8004986758684427
0.8622984,-0.1907082,-0.1355232,0.8934733828872801
0.8756517,-0.1621204,-0.1246266,0.8992111616503712
0.8274166,-0.1684936,-0.1613227,0.8596704814821838
0.7558117,-0.2252698,-0.1452594,0.8019339760462142
0.8073491,-0.4180991,-0.1083585,0.9156205497988072
1.035255,-0.7122871,0.03015566,1.2569865519095442
1.476755,-0.7719148,0.1021392,1.6694580571732494
1.869755,-0.4558928,-0.06193328,1.9255279110644952
1.883919,-0.1912254,-0.1777932,1.9019275417671409
1.727331,-0.2967063,-0.03279453,1.7529353933384455
1.622727,-0.3629272,0.10455,1.666100168515939
1.556904,-0.177869,-0.021206,1.5671748915845354
1.419082,-0.1015449,-0.07366691,1.4246164055874684
1.133007,-0.09876492,0.04165877,1.1380662654650298
0.907405,-0.07790346,0.06416917,0.9130008025645215
0.8088991,-0.1215967,0.07034559,0.8210067073198294
0.7215756,-0.09177585,0.06095583,0.7299381935270762
0.7227235,-0.09550079,0.01132519,0.7290939022316741
0.7370495,-0.1673178,-0.02574092,0.7562405745591388
0.6406131,-0.188154,-0.04868064,0.6694452003849304
0.5771509,-0.2272534,0.01170494,0.6203904212693597
0.5373165,-0.2175512,0.07189238,0.5841284619805427
0.4866922,-0.2158048,0.08414414,0.5390002277738105
0.5538373,-0.2361213,0.05425643,0.6045103666450434
0.693283,-0.1970173,-0.0701925,0.724143716153458
0.8727311,-0.2140603,-0.1861879,0.9176858498689571
0.966777,-0.2131016,-0.213591,1.012764126009882
0.8568543,-0.1969548,-0.1426997,0.8907040412233572
0.8314114,-0.2178697,-0.06818036,0.8621836716835802
0.8819276,-0.2103412,-0.04710864,0.9078870722847912
0.8399772,-0.2621069,0.02045038,0.8801590433493224
0.8678641,-0.3486736,0.02030571,0.9355071871794327
0.9678576,-0.4714066,-0.1135449,1.0825271177745757
1.148554,-0.5892034,-0.3445061,1.3360469267300346
1.389297,-0.5343164,-0.5811386,1.5979243542570845
1.489223,-0.4111811,-0.433736,1.6046750320305387
1.440098,-0.2579608,-0.08006626,1.465208732546673
1.427021,-0.07805623,-0.02765329,1.4294217061212682
1.641765,-0.06441474,-0.1715211,1.6519567372360202
1.836121,-0.151793,-0.4266925,1.8911498965037778
1.661655,-0.1837715,-0.5669591,1.7653078837160558
1.220335,-0.2116375,-0.3055635,1.2756868723019374
0.6947542,-0.2477882,-0.09405344,0.7435915814832182
0.5047531,-0.3093924,-0.1760838,0.6176607918265574
0.7437842,-0.4189738,-0.2647806,0.893791221366847
0.7911361,-0.4570871,-0.2768638,0.9547138364243287
0.6824957,-0.381337,-0.2473223,0.8199918342061584
0.696595,-0.2217724,-0.1904263,0.7554401148724166
0.6260634,-0.0379652,-0.1639971,0.6482991485718688
0.6529667,0.0109798,-0.2060769,0.6848019830801748
0.8019382,-0.05658636,-0.2190336,0.8332362274206816
0.8191273,-0.1119512,-0.1888779,0.8480433160488561
0.8544333,-0.1739005,-0.1715763,0.8886709597881715
0.8448743,-0.2252479,-0.1260325,0.8834214115082054
0.7144386,-0.2108507,-0.1094924,0.7529071101525141
0.5906901,-0.2267099,-0.0853856,0.6384378385429391
0.5018099,-0.2737034,-0.009555789,0.5716800154045816
0.5075104,-0.2036767,0.1018091,0.5562518288274296
0.5225969,-0.1722221,0.06830666,0.5544671058037398
0.5395421,-0.1805613,-0.01123484,0.569064392103324
0.6594964,-0.1630899,-0.08438383,0.6845834119086139
0.8226598,-0.1731454,-0.1602867,0.8558272619367123
0.9600665,-0.2699696,-0.1336043,1.0062113984272392
0.9367485,-0.3247887,-0.05165237,0.9928007953394059
0.9075786,-0.3624364,-0.02481732,0.977586292147605
0.9784219,-0.4827331,-0.06329163,1.0928616063634393
1.031441,-0.6931299,-0.2373339,1.2651588733610575
1.142989,-0.7443337,-0.395587,1.4201920946286422
1.376039,-0.5678325,-0.3399755,1.526925151465356
1.646424,-0.4923164,-0.2418294,1.7353872432945106
1.694833,-0.4742444,-0.2456042,1.7769884838900898
1.567953,-0.354661,-0.2456983,1.6262314379426104
1.612656,-0.2492305,-0.2339783,1.6484905402631647
1.576625,-0.25459,-0.2319103,1.613798266813758
1.340034,-0.3081948,-0.1753092,1.3861487912586008
1.140219,-0.2411861,-0.1325016,1.1729564257877485
0.8897459,-0.1858039,-0.141175,0.9198376141727516
0.7762251,-0.1838937,-0.1739644,0.8164593751296264
0.8092706,-0.1179787,-0.2202891,0.8469741231329679
0.7363261,-0.1421098,-0.2058466,0.7776529711438194
0.7351732,-0.1545,-0.1765651,0.7717027397490888
0.7464882,-0.1209983,-0.158661,0.7726956284741943
0.6998241,-0.1449209,-0.1230067,0.7251803130549739
0.6826142,-0.09306437,-0.1242615,0.7000457437820665
0.6269387,-0.05601968,-0.1177594,0.6403574114456335
0.624228,-0.05492454,-0.0928666,0.6334836276288217
0.6081019,-0.0646097,-0.08361997,0.6172152246182047
0.5776025,-0.1374309,-0.07656537,0.5986435969458764
0.7222399,-0.1766709,-0.08793901,0.748716468056233
0.9125206,-0.2419976,-0.1045205,0.9498322055765271
0.9975015,-0.261882,-0.1489458,1.0420058904650635
0.9832383,-0.170804,-0.1966888,1.0171617595290976
0.8995435,-0.1649826,-0.1799068,0.9320752241000992
0.8090355,-0.2994514,-0.1208847,0.8711042945114552
0.8867904,-0.5882575,0.02387953,1.0644314594145698
1.22173,-0.8466633,0.1757109,1.4967756200732627
1.648243,-0.8123667,0.1216665,1.8415882763365268
1.877516,-0.5831604,0.014705,1.9660515302018815
1.694236,-0.3258136,0.0169557,1.7253630404652378
1.536287,-0.1619872,-0.03151391,1.5451248253317036
1.660392,-0.1132522,-0.05952938,1.665314205053216
1.593099,-0.09506433,-0.005499948,1.5959423235403438
1.383639,-0.132109,0.01702433,1.3900357901917306
1.091216,-0.2117153,0.1070607,1.116708431236453
0.7860298,-0.2730886,0.1590257,0.8471773150872786
0.835173,-0.2908706,0.0770185,0.8877226454335894
0.7618831,-0.2661117,0.03856179,0.8079407816111922
0.5415028,-0.23865,0.01428242,0.591931661958453
0.617044,-0.1883645,0.03166593,0.6459312764675627
0.5928989,-0.1851659,0.1067302,0.6302434860718991
0.5110157,-0.2326517,0.1193958,0.574037643553992
0.5124795,-0.1911098,0.1169684,0.5593208383163012
0.4285596,-0.1605378,0.0948726,0.46737193562703355
0.5092766,-0.1421139,0.04670187,0.530791937148886
0.6900659,-0.09885017,-0.03207286,0.6978473836021875
0.8602749,-0.1484443,-0.1726439,0.8898957972592689
1.004267,-0.1592584,-0.2205836,1.0404674765933437
0.9387805,-0.1503423,-0.1138643,0.957536794678946
0.9211307,-0.2161527,0.0180569,0.9463243671370773
1.010809,-0.2729576,0.05602078,1.0485127627599813
1.083164,-0.4002629,-0.002316004,1.1547553870352534
1.273377,-0.5485836,-0.1204304,1.3917386362252504
1.363002,-0.5914321,-0.3119806,1.5181891435821724
1.296619,-0.5348239,-0.4025141,1.4592035621773336
1.249008,-0.4205032,-0.2857019,1.348506396328119
1.197094,-0.3244698,-0.2049306,1.2571043102163002
1.371264,-0.2781763,-0.2630437,1.423706079107405
1.765683,-0.3232518,-0.387155,1.836305305965552
1.966875,-0.3756716,-0.5564052,2.078295735274121
1.796449,-0.3613617,-0.565736,1.9177769707460484
1.223491,-0.2877155,-0.3247534,1.298142983970876
0.6922559,-0.1707051,-0.1804637,0.7354764505193284
0.8463765,-0.2257549,-0.2977171,0.9251777808933103
1.08426,-0.3184128,-0.3865505,1.1943315066823323
0.8102537,-0.2806643,-0.2825763,0.9028470928013613
0.7588035,-0.3371784,-0.208215,0.8560522830200326
0.851736,-0.3248072,-0.2216812,0.9381345773934996
0.6707521,-0.2026661,-0.1574162,0.7181655712759141
0.7265344,-0.1695018,-0.1559339,0.7621669605511708
0.7556815,-0.1105486,-0.2108717,0.7923019602809903
0.6277811,-0.08391334,-0.1627567,0.6539421240003244
0.6876051,-0.1065362,-0.1567132,0.7132389238612051
0.635659,-0.1278419,-0.1374197,0.662789626974276
0.5897031,-0.252983,-0.06921886,0.6454001820717977
0.6172484,-0.3456431,-0.06425548,0.7103474548347453
0.6541059,-0.3290069,-0.04869317,0.7338058963152783
0.8272635,-0.2836035,-0.1124732,0.8817290198029891
0.8135055,-0.2258752,-0.21748,0.871841932293515
0.7025375,-0.2224971,-0.1845735,0.7596915659113967
0.7162838,-0.2988791,-0.1008953,0.7826691894544847
0.90879,-0.4526852,0.03505415,1.0158995756625073
1.39222,-0.5484922,0.1511588,1.5039844429641818
1.79847,-0.4105497,0.03986901,1.8451652866419501
1.948608,-0.2952594,-0.05837891,1.9717148242291904
1.89508,-0.450565,0.1004235,1.950492733895015
1.696525,-0.5523747,0.2017804,1.7955584687359112
1.551786,-0.3776648,0.113328,1.6010976630234148
1.405049,-0.1841776,0.07655399,1.4191351571036779
1.235944,-0.08416976,0.06458077,1.2404889340450604
1.03098,-0.04623694,0.02975196,1.0324450562351515
0.8176425,-0.1043952,0.0675766,0.8270454718193252
0.7094439,-0.1563215,0.105341,0.7340597965359906
0.6350461,-0.1876261,0.08865848,0.668092380290578
0.6869912,-0.2393929,0.06846655,0.730721245015329
0.7299033,-0.2444444,0.05125872,0.7714527519027258
0.6310848,-0.2247431,0.04332881,0.6713083282402105
0.6106708,-0.1979418,0.07647352,0.6464889646552912
0.549828,-0.1575982,0.123877,0.5852294706832867
0.5255176,-0.1390235,0.1317554,0.5593351114414059
0.6411509,-0.1397783,0.07304189,0.6602632561459649
0.7180379,-0.1336832,-0.06950857,0.7336764035336661
0.8465932,-0.1099667,-0.1961245,0.8759438000781672
0.9319278,-0.1254566,-0.189562,0.9592510280111249
0.9502279,-0.1968755,-0.1281204,0.9788298428914088
0.9501233,-0.2500441,-0.08857258,0.9864590407490603
0.8587917,-0.2488818,-0.02387288,0.8944468954385298
0.8907054,-0.2507016,0.02799871,0.9257382619257908
0.9522668,-0.3491631,-0.003199018,1.0142668103117711
1.028508,-0.4734219,-0.1266677,1.1392987789368072
1.3146,-0.5184644,-0.3281453,1.4507438891752913
1.475788,-0.5005648,-0.3996164,1.608791038976784
1.385309,-0.3767607,-0.2685255,1.4605257939166087
1.249655,-0.2454739,-0.1833722,1.2866702834600052
1.240848,-0.301433,-0.2082996,1.2938138722216421
1.543288,-0.3921199,-0.3858624,1.638409490528473
1.802747,-0.3418762,-0.5540016,1.916688251891267
1.438066,-0.2378892,-0.266199,1.481717584235822
0.9323415,-0.09805194,0.03637691,0.9381887524060186
1.018687,-0.02016676,-0.1893916,1.0363392689310087
1.104824,-0.1123113,-0.3342766,1.159737360091176
0.8761421,-0.1935193,-0.1882627,0.9167974384105738
0.7947419,-0.2428256,-0.209573,0.8570296389040288
0.704664,-0.2214688,-0.2258455,0.772402726652159
0.6734087,-0.08124055,-0.163057,0.697615144222796
0.74795,-0.08831173,-0.2145587,0.7831114862529364
0.7016708,-0.1117987,-0.1991349,0.7378994303374546
0.7568026,-0.05194367,-0.1699871,0.777395609960745
0.7864827,-0.1024846,-0.1970864,0.8172522130293745
0.7475228,-0.09887959,-0.1705436,0.7730799630952598
0.7852047,-0.04843365,-0.194829,0.8104631876867774
0.745426,-0.03500472,-0.2070331,0.774433958703961
0.7497162,-0.02421245,-0.1766279,0.7706218517118838
0.8090405,-0.08480647,-0.1675095,0.8305408482334634
0.9005839,-0.1306839,-0.1244021,0.9184800080256674
1.063868,-0.1622025,-0.1390716,1.085110907860026
1.135705,-0.1702919,-0.1939946,1.1646712338938272
1.129555,-0.152209,-0.2399035,1.1647384972680563
0.9938324,-0.2623568,-0.2975725,1.070085661315135
0.8374521,-0.4664625,-0.2735461,0.9968654636037252
0.9546261,-0.7161421,-0.214707,1.2125467389105544
1.215255,-0.9000759,-0.1706574,1.5218755826152708
1.44152,-0.8832639,-0.1492528,1.6971774879932415
1.499177,-0.6472681,-0.1613767,1.640893083022017
1.310495,-0.2742645,-0.07658524,1.341075486306087
1.206925,-0.1935704,0.05513481,1.2235919673873705
1.351868,-0.3697937,0.07040462,1.4033001391366833
1.477648,-0.362029,-0.01565213,1.5214314305674563
1.477873,-0.3165701,-0.1172084,1.5159363579562206
1.370765,-0.306063,-0.1561812,1.4131750820147657
1.109133,-0.2441934,-0.1493633,1.1454762431754968
0.7906271,-0.2398726,-0.121299,0.8350709687722176
0.601437,-0.2464918,-0.02623505,0.6505174481016958
0.6288004,-0.2911053,0.08982398,0.6987135222044085
0.7937118,-0.3956243,0.1160204,0.894403567426858
0.9494768,-0.438699,0.06064884,1.0476837729642403
0.958951,-0.3919357,0.05182247,1.0372493344092302
0.8249749,-0.2829155,0.1030041,0.8781996415320779
0.7871454,-0.1974379,0.1181936,0.8200910511513523
0.912613,-0.1838113,0.07764584,0.9341723386217319
1.028575,-0.2061011,0.03308755,1.0495422716647542
1.013648,-0.2010795,0.05986931,1.0351326328080503
0.8970832,-0.1677401,0.1163905,0.9200226939377636
0.8293683,-0.1716866,0.1300652,0.8568809846854403
0.8259399,-0.1781733,0.1185074,0.8532094977786288
0.8882907,-0.2294034,0.06291345,0.9195892506053736
1.067971,-0.4303062,-0.007472301,1.1514257761061608
1.333482,-0.7500323,-0.1071909,1.533692467351294
1.489604,-0.9257277,-0.2360375,1.7696342991617051
1.188071,-0.6858787,-0.2051007,1.3870863669199478
0.7631681,-0.3639351,-0.05023707,0.8469935472433099
0.786189,-0.2076437,0.01668306,0.813318740938418
0.9875268,-0.04015169,-0.06002036,0.9901635130333907
1.136063,-0.1090252,-0.1914454,1.1572281431875049
1.248524,-0.3789233,-0.219324,1.323063892196779
1.195054,-0.4365193,-0.1838803,1.2855018968934195
0.985567,-0.3409106,-0.1184284,1.0495654503688276
0.7316109,-0.2006494,-0.0138945,0.7587540760018492
0.7130983,-0.1634466,-0.07696202,0.7356270312032657
0.8691281,-0.2518279,-0.1974964,0.9261780462961644
0.8778023,-0.2515745,-0.197834,0.9343259059297992
0.922498,-0.2745056,-0.2412584,0.9922507243665384
0.9513851,-0.277616,-0.2467534,1.021318506818304
0.8329385,-0.1957147,-0.1695544,0.872261132424058
0.8013765,-0.1923385,-0.1497886,0.837636566790431
0.7330683,-0.1833105,-0.1259639,0.7660670832103088
0.6399172,-0.1865576,-0.1077135,0.6752036426559397
0.67993,-0.1971315,-0.1145759,0.7171424335883773
0.6963874,-0.1762568,-0.09967745,0.7252292495918119
0.6915189,-0.2141036,-0.05770679,0.7262016346733696
0.6937227,-0.2087821,0.00304503,0.724465611318716
0.7387451,-0.1871906,-0.03491135,0.7628915033352991
0.9338049,-0.1874421,-0.1615287,0.9660319109843681
1.128867,-0.1924789,-0.2728457,1.1772143418437868
1.046265,-0.2510857,-0.3168136,1.1216440327102222
0.7489159,-0.3152969,-0.2284687,0.8440883290877265
0.583473,-0.4873321,-0.0679374,0.7632488504663273
0.6384801,-0.6308988,0.08189689,0.9013308130365466
1.002642,-0.5358589,0.04006148,1.137559081126339
1.653318,-0.4381469,-0.1997839,1.722018211809277
2.018376,-0.4019448,-0.2671957,2.075281870426649
1.836616,-0.3922,-0.1357307,1.8829237887866013
1.56852,-0.4455742,0.005581718,1.6305896214809756
1.473924,-0.4356846,0.03446005,1.5373550414589217
1.321801,-0.3774468,-0.02274298,1.374824066406506
1.219978,-0.3081921,0.05279573,1.2594110052292868
1.152331,-0.2027154,0.1002276,1.1743107930867025
0.8834118,-0.1409458,0.07416219,0.8976536956658041
0.769672,-0.1108366,0.09041521,0.7828503367074093
0.7509373,-0.1198705,0.01436046,0.7605800339957338
0.7245811,-0.1824801,-0.02442733,0.7476051443269695
0.7991587,-0.208603,-0.009331095,0.8259884434594645
0.6297376,-0.2388646,0.01829084,0.673765758119857
0.4669878,-0.2738115,0.09880386,0.5502840590385929
0.4548748,-0.2625998,0.07089763,0.5299964269452172
0.4966252,-0.2650306,0.009644591,0.5630016219754231
0.7801632,-0.2784647,-0.0672842,0.8310982922314122
0.9907681,-0.2756385,-0.1592432,1.0406519146218394
1.040783,-0.2342423,-0.1602786,1.0787900341661718
1.080851,-0.191593,-0.1912296,1.1142331541316477
1.080862,-0.2074917,-0.1539945,1.111318934709177
1.000452,-0.2157271,-0.02627906,1.023783656332183
0.879,-0.2118386,-0.02066449,0.9044023516095699
0.90489,-0.2634786,-0.07784014,0.9456775201691006
0.9475824,-0.3999748,-0.1956808,1.046987688998032
1.079982,-0.5615236,-0.4032582,1.2822975666935503
1.317232,-0.5965247,-0.4586951,1.5170178160780117
1.343837,-0.5020147,-0.3053432,1.4666803030556217
1.341877,-0.3697513,-0.1813292,1.4036488826459879
1.458583,-0.1943325,-0.1850698,1.4830645027500626
1.624393,-0.06127593,-0.3173086,1.6562282770440568
1.590801,-0.07630871,-0.4130005,1.6453085588494074
1.237767,-0.1258892,-0.1724329,1.256044721324862
0.9638855,-0.1947582,0.0573504,0.9850355739554028
0.9271752,-0.3321339,-0.1636968,0.9983803991237458
0.9669804,-0.3751208,-0.3527781,1.0955451138206997
0.8429591,-0.3317239,-0.235215,0.9359203418715826
0.718784,-0.3076036,-0.2148559,0.8108227125295455
0.7814004,-0.2641249,-0.2422099,0.8596593415872242
0.7316539,-0.2473009,-0.1716096,0.7911542323328492
0.7214223,-0.2417555,-0.181217,0.7821351915152136
0.7568951,-0.176413,-0.1801001,0.7977767764187048
0.6980045,-0.1145059,-0.1547955,0.7240742572245681
0.7391718,-0.07108436,-0.1859339,0.765505944667355
0.6959243,-0.04623927,-0.1551485,0.7145066539038478
0.6149684,-0.1030851,-0.1076572,0.6327738486634936
0.6266687,-0.1954037,-0.04773989,0.6581605903049742
0.6904764,-0.2405177,-0.003924396,0.7311783803246747
0.873478,-0.229837,-0.07761855,0.9065392999518015
0.9352218,-0.1769175,-0.1122771,0.9584079320341105
0.8941166,-0.133371,-0.1115959,0.9108709913776868
0.8763576,-0.148211,-0.181374,0.9071194361685566
0.8299309,-0.2848579,-0.214192,0.903220645706917
0.9396946,-0.5315267,-0.1011714,1.0843349234715307
1.203314,-0.6844453,0.06310056,1.3857891729842615
1.459213,-0.6253835,0.02171844,1.587727555998599
1.542858,-0.3836614,-0.1433221,1.5962919853091948
1.493957,-0.1777832,-0.1728156,1.5143908397948662
1.607666,-0.3282366,-0.009200078,1.6408576643239858
1.759633,-0.519783,0.1691354,1.8425768492280479
1.726954,-0.3631481,-0.01050584,1.764754099959458
1.540834,-0.2466372,-0.220814,1.5759943358324104
1.217058,-0.2402141,-0.05446694,1.2417325141735531
0.9107637,-0.1100655,0.03017091,0.9178862758197053
0.7621357,-0.0513641,0.02561701,0.7642940057233473
0.6991451,-0.02157559,0.1049218,0.7073033020233244
0.6573654,-0.04099471,0.04877035,0.6604455938260673
0.6248256,-0.1933231,0.0316566,0.6548152348048493
0.5876431,-0.2234757,0.04229209,0.6301225454978325
0.5583519,-0.2163131,-0.00893753,0.5988556427952574
0.5413687,-0.20206,0.03622683,0.5789824661866186
0.5317601,-0.1325149,0.03744615,0.5493006615905741
0.5728096,-0.162393,-0.005146076,0.5954064211942611
0.6906531,-0.1723093,-0.02955636,0.7124365079237235
0.8170166,-0.1897121,-0.08545205,0.8430948098589935
0.8710239,-0.264725,-0.07862161,0.9137523283446133
0.9049917,-0.2971635,-0.08263007,0.9561087026428244
0.9329265,-0.3063807,-0.09401801,0.9864382261140837
0.8932236,-0.2716383,-0.02526786,0.9339562250838256
0.9135401,-0.2785543,0.02482256,0.955386922582392
0.9783539,-0.2752766,0.04566044,1.017368387524285
1.00616,-0.281907,-0.001264687,1.0449072215666841
1.154276,-0.5328668,-0.1990035,1.2868187532556752
1.289748,-0.755259,-0.4059828,1.5487698649188781
1.248749,-0.6538378,-0.4260082,1.4725355412271313
1.214421,-0.4616307,-0.366962,1.3500305099765302
1.286786,-0.3732507,-0.3025799,1.3735679417962914
1.457707,-0.2847295,-0.1674457,1.4946633896860324
1.655133,-0.2493137,-0.3318329,1.7063808608335655
1.666981,-0.3164332,-0.6048736,1.801340527607204
1.398699,-0.2737308,-0.3867238,1.4767676665461225
1.034139,-0.2135549,-0.1919301,1.0732596749720078
0.7800052,-0.1977508,-0.2217885,0.8346877438059875
0.7972471,-0.19072,-0.1788747,0.8390311169190926
0.9402422,-0.258296,-0.2900714,1.0173070506856816
0.9053805,-0.1916743,-0.3524153,0.9902774513916945
0.9268475,-0.1039538,-0.2773874,0.9730346604666507
0.9649151,-0.09476102,-0.2491719,1.0010631532870744
0.8614969,-0.02081752,-0.182278,0.8808152741253756
0.8951744,-0.05602834,-0.2245784,0.9246144272317385
0.856972,-0.0909544,-0.3005472,0.912689613774146
0.7560735,-0.07149472,-0.2852636,0.8112545555342592
0.7338868,-0.1549244,-0.2299284,0.7845116149912378
0.617277,-0.2135411,-0.07731822,0.657730038284841
0.6486546,-0.2305354,-0.02179134,0.6887483018151954
0.7864588,-0.2107042,-0.0894109,0.8190897466296901
0.9357999,-0.1677962,-0.130486,0.9596372302961417
1.0986,-0.1333576,-0.1657913,1.1190142825868892
1.051089,-0.05094927,-0.1516515,1.0631942868012332
1.000583,-0.02065715,-0.1389558,1.0103968389146725
0.964593,-0.08292936,-0.2007396,0.9887433041023184
0.854722,-0.2378386,-0.2995114,0.9363887951400957
0.8639727,-0.5101078,-0.3708498,1.0696674100514467
0.9126307,-0.7728241,-0.319652,1.2378728873463947
1.008784,-0.9389989,-0.1447466,1.3857545493588572
1.18068,-0.958379,0.0006675113,1.5206893225153966
1.336451,-0.736691,-0.04502449,1.5267095694930848
1.465624,-0.3612596,-0.1342236,1.5154465291672683
1.4553,-0.1152267,-0.08300391,1.4622123414429855
1.409309,-0.08819512,-0.03466277,1.4124913253881906
1.497084,-0.204647,-0.02040288,1.5111443263888777
