accx,accy,accz,Total_Acceleration
0.9599337,-0.2482484,0.02457318,0.9918184398737313
1.018087,-0.2174361,0.0192668,1.0412256271982792
1.114402,-0.1763272,-0.1051835,1.1331578300202005
1.094084,-0.2230012,-0.2061982,1.135458952116139
1.024931,-0.2913198,-0.19725,1.0836320146309077
0.8611935,-0.3173421,-0.095253,0.9227314814634103
0.6817292,-0.3460315,0.01367245,0.7646433397433686
0.5716966,-0.3090675,0.0853038,0.6554665973962747
0.5206667,-0.2482449,0.1072936,0.5867122458802612
0.5752902,-0.1924429,0.09266466,0.6136610002186594
0.6370389,-0.1508426,0.08568774,0.660238168295561
0.6831192,-0.1818186,0.08730592,0.712272537994865
0.7471682,-0.1873355,0.09759653,0.7764534701574402
0.7652506,-0.2018472,0.1334685,0.8025986627452415
0.84224,-0.2800095,0.1732161,0.9043104306539099
0.9734622,-0.3022879,0.1929553,1.0374190942494455
0.9837038,-0.2768792,0.2014819,1.0415998336955943
0.9681488,-0.2598299,0.227726,1.0279507804128805
1.046361,-0.2695085,0.2559672,1.1104167602162218
1.134847,-0.2905947,0.2352944,1.1948583379415527
1.204846,-0.3093831,0.1950781,1.2591375029682899
1.245423,-0.3576027,0.1668665,1.3064465426486227
1.212476,-0.4079008,0.1203422,1.28489818986466
1.10515,-0.454526,0.0806962,1.197690395665942
0.924674,-0.464444,0.05909384,1.0364469679332107
0.8060985,-0.4603972,-0.002976691,0.9283152665767161
0.8840649,-0.5414995,-0.09039871,1.0406557464800374
1.007393,-0.5836232,-0.1457815,1.1733324088976194
1.083496,-0.5489356,-0.1768406,1.2274226952324614
1.150777,-0.5062289,-0.1924609,1.2718477113841185
1.088794,-0.4070686,-0.1701846,1.1747936063918292
0.9523348,-0.3547443,-0.118716,1.0231708451326835
0.9183085,-0.3530933,-0.08760285,0.9877447236028459
0.9121066,-0.3309169,-0.108224,0.9762975359208739
0.9251036,-0.3519181,-0.1483103,1.000829138727815
0.954404,-0.3347832,-0.1744312,1.026349370220336
0.9058205,-0.2808796,-0.1920935,0.9676280487143085
0.8508693,-0.247593,-0.1914794,0.906611945628255
0.8089749,-0.2089259,-0.1848007,0.8557112358975486
0.7920402,-0.2382573,-0.1915647,0.8489942601133531
0.8049697,-0.2635244,-0.1887282,0.8677785782033859
0.7814618,-0.2282,-0.1839863,0.8346309025233429
0.7944277,-0.1927415,-0.1737746,0.8357405506224405
0.8019043,-0.1176958,-0.1462005,0.8235759794313942
0.7841961,-0.08428036,-0.1375287,0.8006127938402119
0.8360361,-0.09681673,-0.1326339,0.8520103233766083
0.901016,-0.04834822,-0.1154675,0.9096703392929872
0.973185,-0.0317406,-0.1231919,0.9814645964776162
1.045804,-0.06822698,-0.1498858,1.0586910220916963
1.163043,-0.1091629,-0.1673002,1.1800741144120779
1.299913,-0.182304,-0.1738632,1.3240985493154354
1.298865,-0.2738051,-0.2064527,1.3433697325562683
1.34345,-0.4210826,-0.2863536,1.4367208645926042
1.392856,-0.5448591,-0.3284111,1.5312652043953785
1.237726,-0.5240011,-0.2867284,1.3743201880361688
1.141082,-0.5612216,-0.2662175,1.2991957405783048
1.150161,-0.6463226,-0.2947842,1.3518509362209281
1.167036,-0.5796756,-0.2936664,1.3357532635259852
1.190185,-0.5395085,-0.2575297,1.3318901239138834
1.086888,-0.497655,-0.1710698,1.207580597741219
0.9804043,-0.3417368,-0.03303464,1.0387819402418679
0.9831768,-0.2783673,0.04065668,1.0226328468204766
1.018469,-0.2675005,0.005288483,1.0530259206276413
1.099185,-0.2400237,-0.07688151,1.127709983713264
1.164581,-0.2413302,-0.1439313,1.1980005801804647
1.100967,-0.2365966,-0.128953,1.1334615840113682
0.935775,-0.2631286,-0.07661857,0.9750804664394651
0.8124514,-0.2614336,-0.05786045,0.8554371024482879
0.6987835,-0.2426636,-0.001765102,0.7397209732204978
0.5754185,-0.2615077,0.06847057,0.6357522679925451
0.5580793,-0.2353019,0.08905812,0.6121689619459928
0.5590529,-0.212477,0.1003996,0.6064377133783567
0.5981921,-0.2046896,0.07892662,0.6371507138779603
0.6864492,-0.2075669,0.06441981,0.7200322451645386
0.6968511,-0.2473409,0.08593016,0.7444212307434854
0.7076371,-0.2424301,0.09696568,0.7542711460610716
0.7363786,-0.2362159,0.1590322,0.7895205092887772
0.8150311,-0.2488839,0.2271634,0.8819422316376396
0.9735085,-0.2449133,0.2360358,1.0312197743307583
1.094413,-0.2626164,0.2374848,1.1502635429974297
1.175345,-0.2620134,0.2371265,1.2273206051422791
1.238423,-0.2580845,0.2345984,1.286598439821769
1.315914,-0.282249,0.2051877,1.3613949264002307
1.388883,-0.3308419,0.1731322,1.438202735764833
1.383564,-0.45291,0.1713254,1.4658544275886198
1.303247,-0.5460425,0.1471433,1.4206569978535073
1.099452,-0.493418,0.1069009,1.2098280148222764
0.8605276,-0.4410091,0.05055013,0.968272736519823
0.8080398,-0.4998609,-0.03440392,0.9507748773733015
0.9096305,-0.5363362,-0.1142177,1.062134571960625
0.9918796,-0.5299347,-0.163221,1.1363525078078764
1.066484,-0.544837,-0.1932531,1.2130878943772418
1.112132,-0.4994111,-0.2169337,1.2382686551887274
1.025735,-0.4307067,-0.1761308,1.1263492399600268
0.9393825,-0.3875828,-0.1058286,1.0216944752420118
0.8966724,-0.3460905,-0.09052426,0.9653987097363232
0.8599917,-0.3516347,-0.1088944,0.9354628141536894
0.9034114,-0.3463893,-0.1592724,0.9805638185279987
0.9101816,-0.3111282,-0.2180846,0.9863022835677508
0.8516327,-0.2734724,-0.2363649,0.9251668904706113
0.7942617,-0.2143019,-0.2086389,0.8487091038887882
0.7214559,-0.1749952,-0.1634845,0.7601638753637929
0.7065314,-0.1436793,-0.1501028,0.7364517709954197
0.7170642,-0.1367233,-0.1645517,0.7482991311350161
0.7421486,-0.1550141,-0.1950319,0.7828482341414459
0.8419957,-0.1437974,-0.2217,0.8824881534985328
0.9179748,-0.1394516,-0.2362838,0.9580994292452324
0.9078237,-0.1268846,-0.2445696,0.9487137931130811
0.902884,-0.1012281,-0.2010962,0.9305301324191765
0.9851593,-0.08681855,-0.1673393,1.0030347692503399
1.081022,-0.0707701,-0.2058552,1.1027208780580195
1.158834,-0.08898567,-0.2314825,1.1850733466024788
1.235059,-0.117179,-0.2117536,1.2585472731029852
1.260463,-0.1325648,-0.2012821,1.2832984393150526
1.297619,-0.1672379,-0.2258603,1.3277034531375973
1.324451,-0.2356375,-0.2537056,1.368963846958206
1.303555,-0.3294337,-0.2787474,1.3731286588398954
1.268855,-0.4004343,-0.3007691,1.3641124188116975
1.154944,-0.5224679,-0.3065869,1.3041717206403534
1.093654,-0.6777329,-0.3144349,1.3244886793764679
1.150261,-0.669296,-0.2983999,1.3638548324719202
1.165071,-0.6194135,-0.2659716,1.3460328417352267
1.142058,-0.6283274,-0.2244417,1.322673759342662
1.076614,-0.5186136,-0.1474271,1.2040733037964797
0.9983186,-0.3633762,-0.09588772,1.0667130563929543
1.035408,-0.2676115,-0.09390289,1.073547108489703
1.118955,-0.2024597,-0.1325484,1.1448228249347798
1.124332,-0.2079785,-0.1663671,1.1554460241173796
1.050608,-0.2428672,-0.1267002,1.085732281540841
0.9194528,-0.2975392,-0.07290134,0.9691427306327358
0.7977342,-0.3517002,-0.03321712,0.8724541601658934
0.7359624,-0.3205207,0.005782928,0.8027500330728758
0.6835893,-0.2651602,0.03553922,0.7340758127719087
0.6711041,-0.2143097,0.07683982,0.70867038776044
0.7013371,-0.1903683,0.1093871,0.734900915176808
0.7092787,-0.2207579,0.1322548,0.7545208127077344
0.7349222,-0.2165132,0.1378913,0.7784616987641524
0.7443629,-0.2166858,0.108238,0.78277987165106
0.7263055,-0.256161,0.09692009,0.7762291163676213
0.7067887,-0.2536179,0.1151445,0.7596910961228583
0.6609275,-0.2045206,0.154184,0.7088205287212059
0.7009735,-0.145184,0.2016007,0.743696903179474
0.8215046,-0.1439382,0.2025113,0.8582533657773151
0.9272214,-0.1764518,0.1877785,0.9623593546089995
1.01896,-0.1680897,0.1954882,1.0510705329259926
1.059295,-0.1745253,0.1733191,1.087476201022303
1.120819,-0.1937549,0.120135,1.1437694742648146
1.197546,-0.2431774,0.07697528,1.2244087812972588
1.208682,-0.3888848,0.05780849,1.2710174610567395
1.251141,-0.4903835,0.06829673,1.3455460684353928
1.250545,-0.4587032,0.07168765,1.333945479349798
1.165997,-0.4388627,0.05529284,1.247079296442514
1.134053,-0.4720338,0.04891464,1.2293432218700233
1.066989,-0.4729065,0.02866929,1.1674450788162818
0.9475656,-0.5329821,0.0005545154,1.087175603438147
0.8943294,-0.697288,-0.00109078,1.1340356345588831
0.9035264,-0.7869455,-0.01469961,1.1982734470901715
0.9349114,-0.7782399,-0.07160848,1.2185419328894187
0.9411287,-0.7244012,-0.1489161,1.19693622777671
0.941711,-0.6179163,-0.1884482,1.1419951337067642
0.9532619,-0.5074417,-0.1710538,1.0933730979793403
0.9733884,-0.366612,-0.1670115,1.0534619959594225
0.9977475,-0.2135023,-0.1796701,1.0360331320452787
0.9699762,-0.1492456,-0.164444,0.9950728148340703
0.9436609,-0.1638336,-0.1550785,0.9702508355265766
0.9047114,-0.2039729,-0.142425,0.9382923541462811
0.7923814,-0.2880571,-0.1237875,0.8521552212376686
0.7274653,-0.3945782,-0.1679297,0.8444513619868346
0.738879,-0.3854797,-0.223235,0.8627691701597189
0.752529,-0.2969357,-0.2272837,0.8403145756567477
0.7911355,-0.2209565,-0.2540364,0.8597974452029152
0.9026486,-0.1088489,-0.3045633,0.9588437734167439
1.005178,-0.07240465,-0.3012538,1.0518455671057716
1.005331,-0.132869,-0.2569558,1.0461218255421498
0.981791,-0.1393626,-0.2052158,1.0126445706808485
0.9822719,-0.1173377,-0.1631115,1.0026123791391914
0.9848435,-0.0999007,-0.1624753,1.0031426082381458
0.9929413,-0.08831351,-0.1650481,1.010431876282523
1.005356,-0.09862675,-0.1354991,1.0192290854623274
1.031029,-0.1043824,-0.1128129,1.042421812260838
1.039988,-0.1096089,-0.1100703,1.0515249031978748
1.041645,-0.1001881,-0.1055168,1.0517584116558563
1.080056,-0.08856639,-0.0780051,1.0864850501500891
1.128125,-0.1260642,-0.06030777,1.13674765241412
1.190301,-0.2047283,-0.09193267,1.2112727864668715
1.286419,-0.2693379,-0.1394836,1.3216930137540903
1.377339,-0.2686436,-0.178022,1.4145401857939421
1.423845,-0.2636418,-0.1954785,1.461182201744358
1.392957,-0.3328552,-0.2007084,1.4461693019306556
1.28121,-0.4849509,-0.2507209,1.3926727574012567
1.188378,-0.6584636,-0.3294155,1.397973946484415
1.187689,-0.6566872,-0.3353033,1.3979526252186552
1.187228,-0.571737,-0.2809732,1.3473453381636202
1.116622,-0.5985847,-0.2462228,1.2906486745810921
1.022776,-0.4766104,-0.1681124,1.140828645589652
0.9584161,-0.2677481,-0.07230216,0.997736472287891
0.9788964,-0.2389184,-0.0870695,1.0113858124483306
1.038493,-0.1804147,-0.1362081,1.0628122230811519
1.021349,-0.120513,-0.1420234,1.0381944948407114
0.9710386,-0.1626665,-0.1322399,0.9934101590301058
0.8931983,-0.2067604,-0.09290107,0.9215116249609632
0.748423,-0.3001152,-0.03132616,0.8069618631015877
0.6462902,-0.3245026,0.02408288,0.7235834057880919
0.6037411,-0.2481598,0.05947078,0.6554566162905509
0.6119353,-0.210332,0.06189441,0.650027137586838
0.6649618,-0.1768494,0.05396458,0.690189888099048
0.6803976,-0.1487782,0.08494419,0.7016347784251834
0.6917804,-0.1405224,0.1519722,0.7220818626019906
0.7194472,-0.1664641,0.1958467,0.7639833113867998
0.8072755,-0.2340748,0.1942722,0.8626855931265631
0.9594422,-0.2627906,0.2210996,1.0190550857089915
1.029341,-0.2246295,0.308109,1.0976941570548011
1.037876,-0.1814089,0.3360452,1.1059033216417473
1.056536,-0.2108884,0.304671,1.1196279090803158
1.094458,-0.2471364,0.3157552,1.1655968686883127
1.137915,-0.2529394,0.3033922,1.2045230235733146
1.173145,-0.3306877,0.234315,1.241179707045394
1.272034,-0.4637365,0.1949014,1.3678847152849578
1.378484,-0.5989378,0.2452562,1.5228575869605403
1.393777,-0.6512225,0.2982933,1.5670622077824927
1.268871,-0.5759689,0.1936391,1.406865270541931
1.025551,-0.4725693,0.03266527,1.1296652675760477
0.8812367,-0.364297,-0.05275602,0.9550254568764805
0.8876904,-0.366172,-0.09943183,0.9653822396612177
0.9287771,-0.506564,-0.1007923,1.0627290695749787
0.970897,-0.5554505,-0.1132542,1.1242743243429916
1.004266,-0.5298038,-0.133974,1.1433246686424816
1.051365,-0.5137058,-0.1171449,1.1760038009184537
1.049956,-0.4532969,-0.1365852,1.15175570254488
0.9856446,-0.3555882,-0.1288784,1.055721500905878
0.9553531,-0.2651925,-0.08467837,0.9950864455321038
0.9255653,-0.2641033,-0.09553228,0.9672373515104649
0.8995654,-0.3005117,-0.1083153,0.9545980279301545
0.8916607,-0.3223377,-0.1313614,0.9571918377084814
0.8474683,-0.3709449,-0.1594186,0.9387315528769978
0.7873726,-0.3825906,-0.1520735,0.8885142248953417
0.6857867,-0.3545289,-0.1523714,0.7868997282818567
0.6143863,-0.2593401,-0.1275085,0.6789596679243548
0.6824709,-0.08774474,-0.1048997,0.6960385160352605
0.7861826,0.0214612,-0.1573797,0.8020673498031757
0.8771069,0.03189801,-0.2045931,0.9012171401150669
0.9279503,-0.02568955,-0.1830329,0.9461779720177925
0.9269949,-0.09076182,-0.1525758,0.9438414206535769
0.9661804,-0.1148064,-0.1493586,0.9843744542698577
0.9962514,-0.09939137,-0.1417172,1.0111771660833115
1.033695,-0.05615872,-0.1593375,1.047409945419313
1.126157,-0.05532473,-0.1923941,1.1438120055819414
1.217293,-0.130813,-0.1947905,1.2397006201935408
1.389329,-0.287515,-0.2458844,1.4399163460525617
1.512682,-0.4052475,-0.3087537,1.596170798080187
1.410134,-0.3944739,-0.2895211,1.492618512240291
1.281447,-0.4551225,-0.2776633,1.3879264432894634
1.196981,-0.600165,-0.3153502,1.3756479528665901
1.158943,-0.6780829,-0.3538295,1.3885750291545862
1.262948,-0.7338028,-0.3909523,1.5120674260320304
1.330941,-0.745693,-0.3949404,1.5758933705305571
1.226253,-0.6173544,-0.2969202,1.4046296595104348
1.020819,-0.3846141,-0.1104434,1.096447527829476
0.7865969,-0.1791732,0.06194401,0.8091197556991983
0.7456534,-0.09236417,0.09251005,0.7570259190954769
0.9429032,-0.09751085,-0.02420929,0.9482409504763368
1.037267,-0.1433453,-0.1169738,1.0536382558580197
0.9190514,-0.2058452,-0.1023055,0.947361671979213
0.7518953,-0.2639324,-0.02194459,0.7971752749315035
0.6099222,-0.2938646,0.06028312,0.6797025435754483
0.5461864,-0.2813043,0.06383819,0.6176787249419605
0.5671927,-0.2504094,0.04712818,0.6217985943147205
0.5920788,-0.227051,0.08147882,0.6393342319311804
0.6025959,-0.2200493,0.1023175,0.6496248024310263
0.646077,-0.2266932,0.1126136,0.6938927292890451
0.7202271,-0.2447533,0.1580034,0.7769146206932007
0.7935652,-0.2937694,0.1876652,0.8667551063122962
0.8336655,-0.3304467,0.1833685,0.9153235461974033
0.8490698,-0.3206284,0.2072213,0.9309472398220481
0.9273824,-0.3110311,0.2497007,1.0095191432446737
1.026376,-0.2678878,0.2590983,1.0919448227029285
1.053677,-0.1938773,0.2555143,1.1014132672565642
1.063217,-0.1883875,0.2729894,1.113751970484277
1.10397,-0.2143727,0.3018549,1.1643976108096838
1.178072,-0.206412,0.3100229,1.2355459317453197
1.238354,-0.2169651,0.2797332,1.2879616248616454
1.307456,-0.3039573,0.2317634,1.3621840939237435
1.435291,-0.4684669,0.2029128,1.5233827803544486
1.449495,-0.5737518,0.1903872,1.570501247676066
1.254881,-0.4847758,0.1669833,1.3555874456874886
1.003654,-0.3592997,0.1236201,1.0731726586435661
0.8736599,-0.349854,0.04723199,0.9422899251628292
0.8707793,-0.4044966,-0.04047073,0.960995301084653
0.8516135,-0.5235786,-0.0824646,1.0030854968612446
0.868398,-0.6172036,-0.08100856,1.068465140774482
0.9504283,-0.5972506,-0.08489105,1.1257125401324055
0.982671,-0.5411971,-0.1255317,1.1288466693906218
1.032685,-0.4465246,-0.1687423,1.1376715217669158
1.033039,-0.3722718,-0.1511961,1.1084295779396407
0.915995,-0.3398886,-0.1024723,0.9823806149870069
0.8786078,-0.2682809,-0.08787549,0.922847988169444
0.9124639,-0.2724251,-0.1118114,0.9588052946678903
0.9343105,-0.3208138,-0.1507974,0.9992984842015172
0.9323042,-0.285189,-0.1703107,0.9897118881740938
0.8616556,-0.2656132,-0.1738656,0.9182755533547433
0.7666539,-0.2499686,-0.1576044,0.8216335255273668
0.6689105,-0.2119851,-0.1058664,0.7096383827564713
0.6432795,-0.2256093,-0.09993538,0.6889812417928984
0.7139046,-0.2086655,-0.1439042,0.7575681405451592
0.7944084,-0.1553918,-0.1824111,0.8297620905422288
0.903922,-0.13025,-0.232042,0.942275720979799
0.9694764,-0.09663604,-0.2354214,1.002320432776765
0.981252,-0.08953232,-0.1975111,1.004928932040367
1.01266,-0.09111875,-0.1742718,1.031578190190546
1.021078,-0.06270807,-0.1418448,1.0327887157662814
1.05183,-0.05697738,-0.1368856,1.0622289951884314
1.075094,-0.07146361,-0.142447,1.0868418947571132
1.070868,-0.09614164,-0.115367,1.0813468606579895
1.110375,-0.09982139,-0.09934023,1.119270044190849
1.130687,-0.1171468,-0.1045678,1.141538825233763
1.171021,-0.1965841,-0.1338957,1.1949324454931751
1.258928,-0.2370078,-0.174895,1.2929271702110061
1.30649,-0.2485368,-0.1893021,1.3433249592405592
1.311661,-0.2951495,-0.1631734,1.354323951179632
1.242714,-0.3935566,-0.1379623,1.3108235882150008
1.140812,-0.5431196,-0.1644223,1.274152899767312
1.121499,-0.614948,-0.1801441,1.2916551190119636
1.170178,-0.6162016,-0.1513188,1.3311342316836419
1.197861,-0.6661519,-0.1117565,1.3751795680880587
1.133514,-0.6942387,-0.0702265,1.331072170122995
1.011922,-0.5855077,-0.07542237,1.1715348627931252
0.9039053,-0.3830162,-0.09097651,0.9859122304760755
0.8619201,-0.2271486,-0.0645269,0.8936814119637826
0.9045609,-0.1803426,-0.05942196,0.9242753077486229
0.947189,-0.2162772,-0.04875909,0.9727899453728271
0.9690697,-0.2703532,-0.01735709,1.0062247287666897
0.9539541,-0.3143903,-0.03082118,1.004897821063163
0.8735004,-0.34227,-0.03916861,0.9389812999785949
0.8408227,-0.2889943,-0.0186473,0.8892964860298673
0.8563908,-0.2013076,-0.01463958,0.8798546865505555
0.8701618,-0.1400568,-0.00522497,0.881376631025001
0.8974462,-0.108205,0.02127881,0.9041962130392143
0.8785086,-0.1549869,0.05615441,0.8938409350706746
0.8505733,-0.1904596,0.08517841,0.8757883074323258
0.851691,-0.1806021,0.08710491,0.8749753958549451
0.8399359,-0.2013499,0.09478639,0.868918038751672
0.832413,-0.2146406,0.1269279,0.8689606904433421
0.820496,-0.2204927,0.151083,0.8629349857656079
0.8171772,-0.2048945,0.170799,0.8596119070435739
0.8227073,-0.1772866,0.2108296,0.867598386495163
0.8155124,-0.1974102,0.2318315,0.8705039379635511
0.8350402,-0.2141728,0.2142328,0.8882892639628828
0.8593137,-0.2235233,0.2199203,0.9147391098027186
0.8801148,-0.222593,0.2381342,0.9385401440735925
0.9388145,-0.1861748,0.2429006,0.9874383135394584
1.010654,-0.169783,0.2687887,1.059478711467432
1.030107,-0.1748483,0.2839984,1.0827499483557828
1.016896,-0.1812688,0.3023863,1.0762775325617133
1.093502,-0.1951107,0.3404821,1.1617843473204914
1.197225,-0.2484,0.3056191,1.2603385636049584
1.234152,-0.3601229,0.2566327,1.3109843648639368
1.334227,-0.444401,0.277588,1.433425629069747
1.457393,-0.4441002,0.2610684,1.5457606715037098
1.449737,-0.4029181,0.1965573,1.5174699788331563
1.307473,-0.3904163,0.1594078,1.3737981582952898
1.069939,-0.4309492,0.1138639,1.1590736233841445
0.8944738,-0.5098909,0.0490681,1.0307666017226498
0.8346847,-0.6094961,-0.00221676,1.0335322725266964
0.7883765,-0.6668574,-0.06458268,1.0346048618883408
0.8778271,-0.6653859,-0.1466187,1.1112226854248926
1.062784,-0.6156719,-0.2102916,1.246107650299993
1.070244,-0.5071458,-0.2399629,1.2083878828298678
0.9830108,-0.4164472,-0.2125596,1.0885403469126167
0.9164898,-0.3692197,-0.1423616,0.9982702868094843
0.8388232,-0.3308846,-0.1160332,0.9091604274701137
0.8308755,-0.3143432,-0.1271259,0.8973999879302986
0.8471522,-0.2958552,-0.1636579,0.9121299565107431
0.8296985,-0.2713169,-0.2392354,0.9051221120605882
0.8143803,-0.2487758,-0.2535936,0.8884899468506607
0.7565451,-0.221853,-0.2096743,0.8158079149061377
0.6883702,-0.21508,-0.1804897,0.743430878060718
0.6779491,-0.2018637,-0.1542855,0.723994441331389
0.7373954,-0.1727385,-0.1498126,0.7720326291305116
0.8525712,-0.1651028,-0.1765003,0.8861653014744878
0.944928,-0.1557147,-0.223401,0.9833839533880396
0.9694649,-0.1247533,-0.2455599,1.007831951607464
0.9669426,-0.09778288,-0.2070484,0.9936843177077992
1.031573,-0.08522852,-0.1703774,1.0490163074905703
1.161621,-0.06174395,-0.1644935,1.17483350928753
1.23467,-0.02605057,-0.1685807,1.2463980477800078
1.260494,-0.0326187,-0.1626242,1.2713597972451898
1.313302,-0.1291457,-0.1554173,1.328757047835224
1.364847,-0.3092252,-0.1985827,1.4134576917839918
1.370933,-0.4645305,-0.2899263,1.4762462990134606
1.317789,-0.5043117,-0.3468091,1.452988193730665
1.218571,-0.5220481,-0.2938874,1.3578730811947668
1.117494,-0.6132136,-0.2165579,1.2929505339777583
1.090047,-0.6880353,-0.2178139,1.3073017751415699
1.121646,-0.6207367,-0.2237706,1.3013366518573317
1.099131,-0.4797473,-0.194357,1.2149160754831134
1.024994,-0.3736974,-0.1239382,1.0980087086275774
0.9633092,-0.2482274,-0.01365803,0.9948708452351395
0.9604233,-0.1647811,0.01380336,0.9745543898866751
1.01915,-0.1950958,-0.05438506,1.0390797988743903
1.035864,-0.2216704,-0.1325246,1.067574242072803
1.003526,-0.2658284,-0.190428,1.055458191548372
0.9607409,-0.3307608,-0.1739119,1.03085941462018
0.8723164,-0.343703,-0.1240439,0.945756069525948
0.7161576,-0.3506739,-0.06528665,0.8000726459810962
0.511503,-0.3400851,0.05284262,0.6165107758502477
0.4668526,-0.3193141,0.08618733,0.5721373090771995
0.5740148,-0.2385978,0.05073605,0.6236954766177822
0.5838056,-0.1022564,0.1090524,0.6026423283159589
0.6352196,-0.1147206,0.1112187,0.6550071415780212
0.741018,-0.1903262,0.08198181,0.7694496448120021
0.7958385,-0.2293589,0.1572727,0.8430297297585359
0.9465581,-0.3179016,0.2030149,1.0189449021317
1.073188,-0.3386956,0.2520523,1.1532465281710802
1.140194,-0.2933973,0.308625,1.2171169721552197
1.165266,-0.2965777,0.3142372,1.2427985358685976
1.069111,-0.2956419,0.3741504,1.1706369997470478
1.062551,-0.2732807,0.3989624,1.1674193613296167
1.086601,-0.2533919,0.3426788,1.1671923355454532
1.121203,-0.2733308,0.2809887,1.1877544118904926
1.318991,-0.3935649,0.1823286,1.3884791345104794
1.382965,-0.5353754,0.04632282,1.4836997047256268
1.14149,-0.5385876,-0.08707205,1.2651709627022596
0.7963364,-0.4352629,-0.076198,0.9107203683268372
0.7155931,-0.4025229,-0.01536538,0.8211785827057135
0.9157882,-0.4573378,-0.128613,1.0316817311250017
1.048159,-0.5098029,-0.2098833,1.1843087797311562
1.124879,-0.5230643,-0.2001906,1.2565927354970066
1.08678,-0.4918664,-0.1953577,1.2087960765978065
0.9444903,-0.4473152,-0.1008649,1.049917398178133
0.8894694,-0.3902282,-0.04054774,0.9721512129451403
0.8188656,-0.3353219,-0.05825199,0.8867778424283785
0.8175617,-0.3052157,-0.09070843,0.8773777841422957
0.8581692,-0.2502042,-0.1691903,0.9097702320588259
0.8281715,-0.2001145,-0.1946938,0.8739676894948347
0.8625031,-0.1806268,-0.1828317,0.8999805936311849
0.8446421,-0.1709953,-0.163122,0.8770795041491393
0.7804997,-0.2029021,-0.1204438,0.8153868731117395
0.7646114,-0.233882,-0.1256405,0.8093929318780897
0.7408199,-0.2358918,-0.1310111,0.7884307032748407
0.7906786,-0.2294341,-0.1440965,0.835808863349163
0.8681618,-0.1970665,-0.1772849,0.9077279615443715
0.9116406,-0.1593179,-0.1703782,0.9410098340952713
0.9286717,-0.1427386,-0.1643065,0.9538354471569507
0.931009,-0.1362669,-0.1634016,0.9550112611897149
1.013614,-0.114162,-0.1593787,1.0323990862324948
1.105242,-0.1108363,-0.1793551,1.125172349401504
1.177581,-0.1606298,-0.2036971,1.205815679429261
1.260915,-0.2120297,-0.1995122,1.2940897761963541
1.331595,-0.2815872,-0.2052775,1.3764357766474578
1.462555,-0.3611571,-0.2616943,1.5290472476538781
1.502582,-0.3519043,-0.2920499,1.57063122570911
1.373711,-0.3442435,-0.2671394,1.4411623634572233
1.222441,-0.4790501,-0.2271785,1.3324642838189924
1.064119,-0.6023096,-0.1998212,1.2389732089042926
1.072903,-0.584388,-0.2255489,1.2423777558553637
1.150356,-0.5799972,-0.2520115,1.3127168296613287
1.04759,-0.5934178,-0.2212311,1.2241456992793178
1.039969,-0.5299594,-0.1859154,1.181929364457335
1.027242,-0.4654788,-0.1440019,1.1369402741644128
0.8686093,-0.3600974,-0.06080389,0.9422575903501028
0.9123129,-0.2416302,-0.03570869,0.9444443295398443
1.019687,-0.2330764,-0.0912562,1.0499589897916966
1.052512,-0.2116197,-0.12013,1.0802757168760622
1.060666,-0.2010675,-0.1335836,1.0877890794180691
0.9278287,-0.2826779,-0.1018635,0.9752687139062495
0.7898493,-0.3231166,-0.01806705,0.8535764009166095
0.6694571,-0.343793,-0.0028036,0.7525784316351153
0.5950693,-0.3339064,0.0146642,0.6825071388088846
0.6415271,-0.2788856,0.06698645,0.702724257732272
0.6576261,-0.2838027,0.06653214,0.7193348216105485
0.6914016,-0.2740685,0.06761927,0.7468079276829772
0.7077377,-0.265256,0.08017472,0.7600535397354377
0.6957989,-0.2804916,0.1104124,0.7582892225170618
0.7652575,-0.260123,0.1706558,0.8260789420563207
0.7831361,-0.2921491,0.1913846,0.8574854592768206
0.8278423,-0.3173292,0.2177703,0.9129318695302624
0.960395,-0.2830454,0.2672495,1.036289317582889
1.059768,-0.2536159,0.2779573,1.1245841449976521
1.142635,-0.2234254,0.2894332,1.1997104775121372
1.152974,-0.2266748,0.321017,1.218106080733546
1.13383,-0.2198067,0.3437468,1.2050092600370879
1.15417,-0.166244,0.3392175,1.2144191898773051
1.164506,-0.1482541,0.2922788,1.209743939489779
1.237415,-0.2506286,0.2428564,1.2856865124842525
1.356657,-0.4774244,0.2085047,1.4532468762348847
1.380673,-0.6132002,0.133679,1.5166220667160426
1.231453,-0.5399415,0.03505833,1.345080815837338
0.9838523,-0.4411727,-0.01845158,1.0783965690992698
0.8761061,-0.41924,-0.07477162,0.9741226161087907
0.9556666,-0.4511063,-0.1580713,1.0685420348020662
1.034613,-0.5312647,-0.1776499,1.176531227042062
1.075888,-0.5884467,-0.1638671,1.2371972089150944
1.1054,-0.5881172,-0.1708251,1.2637136604966528
1.009025,-0.5301658,-0.1479061,1.1493839395658225
0.8414217,-0.3860828,-0.1096534,0.9322415319102073
0.757445,-0.2927227,-0.07731028,0.8157121958840436
0.7096585,-0.2902181,-0.06778089,0.7696986301397788
0.7035372,-0.2634283,-0.1246824,0.7615147811398607
0.7470666,-0.254084,-0.2060819,0.8155592764472549
0.7740326,-0.2372996,-0.2538367,0.8484519057022678
0.821367,-0.2114542,-0.2465893,0.8832683115911777
0.843399,-0.2419475,-0.1916563,0.8981050068265627
0.8240749,-0.2484605,-0.1419731,0.8723465033998073
0.8278857,-0.2225963,-0.144876,0.8694440179874607
0.8257848,-0.191018,-0.1778788,0.8660538549792847
0.8473536,-0.1730317,-0.1916572,0.8858219770076209
0.8965773,-0.1844099,-0.2052055,0.9380656497940589
0.9312486,-0.1695869,-0.2112476,0.9698501019020053
0.9853366,-0.1548765,-0.1981251,1.0169210887781903
1.058326,-0.1623224,-0.2010273,1.0894101427667406
1.124674,-0.1462543,-0.1922521,1.1503229096644558
1.178451,-0.07112885,-0.1959599,1.1967482421592823
0.653997,-0.1616316,0.1015733,0.6812884744368204
0.6915905,-0.1654334,0.0947756,0.717389743362121
0.7469022,-0.213853,0.08199091,0.7812288469433705
0.754179,-0.2701875,0.1094322,0.8085559075253177
0.7932423,-0.3086335,0.157793,0.8656711931677871
0.8975871,-0.2927845,0.1900831,0.9630768143986594
1.047656,-0.2646697,0.2252495,1.1037982069582917
1.178056,-0.330686,0.2563039,1.2501443352218213
1.193876,-0.3793693,0.2758875,1.2827216696597668
1.212072,-0.3587547,0.279761,1.2946388241811266
1.252592,-0.3627863,0.2101007,1.3208871723475022
1.317312,-0.3843428,0.1099049,1.3766297179342926
1.404764,-0.4585496,0.06213868,1.4790168514619102
1.229809,-0.5410398,0.03027969,1.3439014477600415
0.8823372,-0.5102206,-0.01203437,1.0193080109709218
0.7612587,-0.4852381,-0.05330378,0.9043296495081804
0.8668131,-0.5633831,-0.1061906,1.0392506488935094
1.043249,-0.6086407,-0.1749278,1.2204145660021968
1.193868,-0.5852893,-0.24011,1.3511244125610675
1.206163,-0.5682674,-0.2409023,1.3549136277331668
1.056571,-0.5078114,-0.1415355,1.1807823651169636
0.9393807,-0.417502,-0.05780905,1.0296047327971996
0.958589,-0.3805297,-0.08651858,1.0349788346571664
0.9432161,-0.3225216,-0.1185884,1.0038625415764502
0.9447743,-0.2391078,-0.1149858,0.981321941140098
1.006661,-0.2133677,-0.160297,1.0414351984320918
0.9327099,-0.183529,-0.1775977,0.9670427055948977
0.8044762,-0.1636997,-0.1310108,0.8313503340127855
0.7172067,-0.206003,-0.114344,0.7549153839139126
0.641072,-0.2267438,-0.08983872,0.685898721119728
0.6592016,-0.2491518,-0.06843577,0.7080302419397726
0.7159253,-0.2566079,-0.115003,0.7691699029027982
0.7478639,-0.175849,-0.1645353,0.7856813276833682
0.7991338,-0.1063528,-0.1898476,0.8282317668358538
0.8437181,-0.0713204,-0.1912191,0.868050445497599
0.89708,-0.06589358,-0.1836534,0.9180539535434594
0.9881776,-0.09197197,-0.192028,1.0108553631412562
1.095633,-0.1132051,-0.1823356,1.1164557028303317
1.189141,-0.1860141,-0.1744469,1.2161781465720474
1.247463,-0.2693998,-0.1802872,1.2888924171911633
1.344901,-0.3444519,-0.219739,1.405592771515139
1.494298,-0.4163713,-0.3219389,1.5842778252569527
1.547179,-0.4120654,-0.3786546,1.6452781096274636
1.414245,-0.4448854,-0.3477243,1.522801407921811
1.197889,-0.5717143,-0.3228355,1.3660227147473574
1.05767,-0.6726388,-0.3162179,1.2927113151998981
1.019243,-0.6842861,-0.2916555,1.2618108774227854
1.059481,-0.6222375,-0.2758569,1.259276190930671
1.094031,-0.5556427,-0.2376133,1.2498410776419455
1.038474,-0.4825659,-0.1346319,1.1530064375433555
0.9941741,-0.3888751,-0.05436976,1.068906944178621
0.9916743,-0.3063719,-0.02436732,1.038207794554675
1.030468,-0.2531112,-0.05771031,1.0626664850599814
1.092806,-0.2552894,-0.1474877,1.1318790805733843
1.022285,-0.2633267,-0.1453481,1.0656142089572098
0.9007178,-0.2632341,-0.0700426,0.941005160694887
0.8176283,-0.2855245,-0.0001823917,0.8660486766503787
0.6885957,-0.2660066,0.05614124,0.7403211385140827
0.5812655,-0.2151714,0.05565771,0.6223070733574013
0.5296783,-0.1691579,0.07243059,0.5607313857731241
0.5266171,-0.1437179,0.09628682,0.5543027660931635
0.5767667,-0.1858621,0.08982887,0.6125959290843981
0.6204599,-0.2414777,0.128775,0.6781334438960372
0.6724357,-0.2958165,0.16651,0.753261410405936
0.7515139,-0.3399444,0.2009299,0.8489453231501897
0.876122,-0.2992531,0.2439456,0.9574192563882188
1.018241,-0.2480721,0.2483039,1.0770372916638586
1.081959,-0.2420471,0.2545861,1.1375571012536556
1.13185,-0.2560713,0.2593809,1.189090149849245
1.216964,-0.2912841,0.2536863,1.2767946361950695
1.271372,-0.3259172,0.2382574,1.3339322967432041
1.312398,-0.4206624,0.1876744,1.3908871433704173
1.328602,-0.5497594,0.1414125,1.4447893159380054
1.214211,-0.5425915,0.1371914,1.3369874227632845
0.9897526,-0.421308,0.1480823,1.0858356264389422
0.845749,-0.3427284,0.1099534,0.9191538920872391
0.8688364,-0.4011921,0.01698259,0.957141682004539
1.024623,-0.533884,-0.1082729,1.160434159467658
1.198767,-0.5908257,-0.2162879,1.353845553878248
1.176588,-0.5761673,-0.2099347,1.3268009110629146
1.052024,-0.5314686,-0.1427767,1.187265158010143
1.012326,-0.4757603,-0.1005136,1.1230559991011357
0.9474642,-0.4323666,-0.08578954,1.0449828382565005
0.8900801,-0.3614215,-0.1116812,0.9671301750600588
0.8886246,-0.326339,-0.1313456,0.9557209264662566
0.8584732,-0.3548677,-0.1455366,0.9402596564572416
0.8505937,-0.3521838,-0.1764051,0.9373696340121862
0.8438148,-0.3188881,-0.1839993,0.9206349870720426
0.8254231,-0.2682865,-0.1966832,0.8899355152246144
0.8363257,-0.2276492,-0.1981869,0.8891247843091205
0.8225859,-0.2270558,-0.1548701,0.867286946210111
0.7830539,-0.1995657,-0.1194037,0.8168580797760342
0.7409913,-0.1540499,-0.1052612,0.7641200158294116
0.7432829,-0.1649854,-0.1137919,0.7698300125035266
0.7704913,-0.1674026,-0.1249781,0.7983107160385986
0.7788208,-0.1121294,-0.1187289,0.7957583757348772
0.8413331,-0.08980358,-0.1317572,0.856309539762501
0.899902,-0.09814378,-0.1386881,0.915800305873665
0.9426109,-0.1042423,-0.1357851,0.9580288927219837
1.042554,-0.1346097,-0.1545467,1.062508021960766
1.126866,-0.1864952,-0.1583115,1.1531131655701836
1.214222,-0.294587,-0.1594013,1.2595734755442771
1.294464,-0.3980353,-0.1901133,1.3675570241050208
1.291751,-0.4215258,-0.2469043,1.3810381527767905
1.254679,-0.4387695,-0.3122668,1.3653749014660737
1.19995,-0.4784649,-0.3335179,1.3341824660264503
1.165034,-0.5497743,-0.3042172,1.3236706942711733
1.163232,-0.64402,-0.2716747,1.357084223194747
1.139999,-0.6797875,-0.2708071,1.3546384206007374
1.127308,-0.6284515,-0.2737744,1.3193661496383822
1.098218,-0.5533458,-0.2267856,1.2504823302506116
1.030122,-0.4888596,-0.1370413,1.1484404038964537
1.01279,-0.3774919,-0.05277232,1.0821407655308957
1.043184,-0.2993316,-0.04125363,1.086063592338283
1.069446,-0.3079691,-0.068973,1.1150412495508
1.083738,-0.2743932,-0.06730768,1.119959822778131
1.05311,-0.2712038,-0.08112578,1.0904923500029922
0.9810168,-0.3369116,-0.07509532,1.0399724492421434
0.9217679,-0.3543662,-0.02075181,0.9877560947881446
0.8531917,-0.3512306,0.02596703,0.9230239964227749
0.7420057,-0.3050511,0.08349881,0.8065982170294675
0.6600817,-0.2243045,0.1149503,0.7065648808603708
0.6483105,-0.187335,0.1061287,0.6831282512083218
0.6527915,-0.1729017,0.112056,0.6845350885609444
0.6417872,-0.1859051,0.1099571,0.6771573525630952
0.6225224,-0.200081,0.1141139,0.6637684289238002
0.604672,-0.2121686,0.1416526,0.6562843907154275
0.6110771,-0.2357623,0.1659515,0.6756766864395649
0.6563617,-0.2218943,0.1829018,0.7165897222557829
0.7352969,-0.2163962,0.1934581,0.7905155804787531
0.8496479,-0.2278207,0.2164343,0.905896037931169
1.006742,-0.2341576,0.2228076,1.0573563556434133
1.202817,-0.2537508,0.1999326,1.2454441972775818
1.356237,-0.2387697,0.184241,1.3893647886311535
1.391583,-0.2336286,0.1583555,1.4199162063330393
1.404573,-0.3336754,0.1424376,1.450673310841528
1.440632,-0.5116799,0.1424589,1.535425484247679
1.376008,-0.6273831,0.1319964,1.518035118119001
1.142606,-0.5916053,0.1355052,1.2937955640096814
0.8242907,-0.5522559,0.1093203,0.9981947030431438
0.6640664,-0.6038412,0.02952833,0.8980424826805182
0.7381983,-0.6983968,-0.03077107,1.0166817000035335
0.8463997,-0.834285,-0.04153166,1.1891798821740325
0.9722617,-0.8534765,-0.07008896,1.2956185440371797
1.073044,-0.7171975,-0.1709591,1.3019303721071493
1.027571,-0.6213461,-0.2325514,1.223132572400952
0.9985834,-0.5256563,-0.1981433,1.1457504614095253
0.934715,-0.3903438,-0.1551137,1.0247539574703433
0.7730883,-0.2633745,-0.1104128,0.8241496425109823
0.7761188,-0.2110055,-0.09869456,0.8103235951873077
0.8352732,-0.2895396,-0.1587239,0.8981691238500743
0.8222778,-0.2771977,-0.2384088,0.8998989394235165
0.8661363,-0.2475694,-0.2945825,0.9477666101421277
0.8549811,-0.3383313,-0.2739761,0.9594392389766587
0.7788613,-0.3615034,-0.2275355,0.8883028968823079
0.7471174,-0.4008971,-0.2297978,0.8784702175122444
0.7146579,-0.3344585,-0.2240375,0.8202385041321274
0.7117892,-0.1178072,-0.221258,0.7546373328775089
0.8201213,-0.0547819,-0.2381289,0.8557484304960834
1.009195,-0.04458616,-0.2486823,1.0403390601250324
1.084526,-0.0632294,-0.2605473,1.1171747836563668
1.004808,-0.0937176,-0.201989,1.029184950110892
0.9884702,-0.05753953,-0.09119006,0.9943338276672802
1.014859,-0.08607825,-0.04097519,1.019326847090568
1.026579,-0.08461005,-0.04213498,1.0309212677705328
1.125776,-0.0743668,-0.05895637,1.1297689483614854
1.191993,-0.1146741,-0.06587031,1.1993066159240955
1.154594,-0.160901,-0.06246837,1.1674239734935448
1.138754,-0.2556245,-0.06914255,1.1691386785735696
1.168524,-0.2609973,-0.08245139,1.2001525573426994
1.235201,-0.2400453,-0.1202408,1.2640415762298842
1.308421,-0.2986221,-0.1529756,1.3507561608390946
1.289825,-0.3354241,-0.1662804,1.3430588330039641
1.212545,-0.4238894,-0.228486,1.3046660310797396
1.185648,-0.5278778,-0.3438159,1.3426189052481163
1.164842,-0.5797509,-0.3945728,1.3596527812330066
1.128955,-0.6556859,-0.2839397,1.3360707858193368
1.091752,-0.6934973,-0.1297674,1.2998848074787435
1.040977,-0.6400517,-0.08508442,1.224964755300587
1.079933,-0.5316011,-0.1143171,1.2091002495089562
1.135971,-0.383916,-0.1596999,1.2096799849369295
1.099501,-0.2358703,-0.1838938,1.1394534554344597
1.030603,-0.1455272,-0.1183089,1.0475293338938294
0.8870875,-0.1337286,-0.005720014,0.8971289147465765
0.7732937,-0.1949846,0.03117371,0.7981064721526909
0.7753455,-0.2898787,0.01485209,0.8278954581716874
0.756961,-0.3454943,0.01811544,0.8322766583413735
0.7324602,-0.3528213,0.008924178,0.8130562436084638
0.7052637,-0.32091,0.005725183,0.774863144276506
0.6506866,-0.2596277,0.04610135,0.7020861261260419
0.6305009,-0.2207102,0.1023648,0.6758127918025005
0.6257107,-0.2026246,0.1489361,0.6743534462749189
0.6343382,-0.2082268,0.1513946,0.6845901526655492
0.6773903,-0.2581472,0.142797,0.738842729280684
0.7504276,-0.3151015,0.1682637,0.8311096262718294
0.8639598,-0.3333879,0.2171573,0.9511736544005727
0.9699809,-0.3193133,0.283126,1.0597095176498605
1.019914,-0.3328909,0.2928486,1.1121156510097185
1.091928,-0.3435632,0.2580508,1.173427733164203
1.217822,-0.3121677,0.2646797,1.2847546225639275
1.254649,-0.3168431,0.2513955,1.3182311484101943
1.246107,-0.3872045,0.2192699,1.3231739376647578
1.370946,-0.4928178,0.2001373,1.4705159835119543
1.45897,-0.5456858,0.118606,1.562188796675242
1.270215,-0.5114255,0.03189864,1.3696786891490647
0.9428997,-0.479898,0.01574779,1.0581162164686704
0.771452,-0.4569324,-0.004090089,0.8966282034945074
0.8100094,-0.4816524,-0.06736647,0.9447975993800899
0.954988,-0.562029,-0.1402136,1.116932643721169
1.122753,-0.5672016,-0.1886029,1.271952439338818
1.145932,-0.5244111,-0.2003628,1.2760534479601746
1.055618,-0.4866322,-0.1806994,1.1763471142316795
1.0057,-0.4409618,-0.1329631,1.106146005290825
0.9264536,-0.4103275,-0.08953375,1.0172026457880812
0.872131,-0.3517239,-0.09835343,0.945513395032019
0.8673238,-0.2865412,-0.1252273,0.9219752220147621
0.8379985,-0.27726,-0.1195637,0.890735691414653
0.8634377,-0.2598151,-0.1365918,0.9119681287175226
0.8505202,-0.1926367,-0.1786284,0.8901694299859381
0.7998922,-0.167192,-0.1764229,0.8360058230235302
0.7890769,-0.1899291,-0.1370203,0.8230977947683433
0.6904748,-0.1620967,-0.09239533,0.7152396008274003
0.643201,-0.1551749,-0.09266056,0.6681113345622297
0.72405,-0.1831775,-0.1193559,0.7563387004980374
0.7932945,-0.1609711,-0.1319791,0.8201501945389454
0.8682014,-0.1483957,-0.1857726,0.9001702137102794
0.8929221,-0.1346855,-0.2179445,0.9289509490058719
0.9021583,-0.1363729,-0.1976665,0.9335733561619837
0.9693025,-0.1745263,-0.2071525,1.0064387334329843
1.01173,-0.1640955,-0.2064178,1.0455301211237724
1.075712,-0.1677125,-0.2011025,1.1071251081546747
1.157392,-0.199018,-0.2124622,1.1934423289027585
1.216207,-0.2431455,-0.2088293,1.2577316397219798
1.297997,-0.3368301,-0.2299763,1.3605659950317368
1.320412,-0.3884918,-0.251444,1.3991561076403305
1.2677,-0.4191818,-0.2385313,1.356345771745144
1.217289,-0.4839666,-0.2362656,1.3311039077321951
1.14755,-0.5115568,-0.2604297,1.2831153458548963
1.079791,-0.5019072,-0.2798597,1.223184733708253
1.064757,-0.5072246,-0.2652531,1.2088604017643103
1.082138,-0.544078,-0.2474455,1.2362333099371856
1.089864,-0.5815541,-0.2421574,1.2588283902492705
1.065046,-0.5855757,-0.2145122,1.2341950277388618
1.040616,-0.5274037,-0.1503767,1.176286306191048
1.039478,-0.4260731,-0.08363417,1.126520072355215
1.049842,-0.358998,-0.09151418,1.1132935974436717
1.070581,-0.2962527,-0.1228861,1.1175913087490883
1.078007,-0.2207464,-0.08979678,1.1040342054756855
1.054377,-0.2235431,-0.0644836,1.0797409459474852
0.9950179,-0.2948224,-0.03380006,1.038327170461302
0.9209056,-0.3492792,0.01191084,0.9849898231827096
0.8756712,-0.3576034,-0.007444202,0.9459046771976639
0.8167674,-0.3219652,0.001355077,0.877936450973233
0.7217984,-0.2483113,0.04095822,0.7644141598216364
0.6592665,-0.1717087,0.04204301,0.6825568184171923
0.6292181,-0.1517549,0.08878166,0.6533200978035006
0.5996466,-0.1998287,0.1572278,0.6513279783090007
0.5818827,-0.2518575,0.2129922,0.6688687121748034
0.5839485,-0.2741801,0.2443788,0.6898489514217587
0.63632,-0.2854532,0.2132697,0.7292946158640758
0.7694571,-0.2914423,0.2081921,0.8487324628362638
0.8963123,-0.3001341,0.2254174,0.9717351600805952
0.9320263,-0.2883175,0.2241236,1.001015181091126
1.012286,-0.2711525,0.2375103,1.0745500298535848
1.151495,-0.2859332,0.2192656,1.2065553999840206
1.151688,-0.2804961,0.1970904,1.2016272039328046
1.117705,-0.2655293,0.2223297,1.1701285278487916
1.141128,-0.263281,0.2373485,1.1949160254165352
1.123207,-0.296401,0.2150856,1.1814014275331481
1.178468,-0.4691605,0.1632052,1.2788801113049222
1.281527,-0.6626632,0.1024601,1.446351285288346
1.276672,-0.637362,0.06530183,1.4284208216171272
1.146423,-0.4875416,0.0263453,1.246064437134633
0.9328426,-0.4378688,-0.009136334,1.0305376630609673
0.8103946,-0.4603131,0.00243557,0.932005091049397
0.8098186,-0.5218502,-0.03188369,0.9639244606472108
0.9023259,-0.6333886,-0.1237435,1.1093627009292406
1.058094,-0.6669396,-0.136016,1.2581222894218829
1.04281,-0.6272795,-0.1157606,1.2224290505925528
0.9302259,-0.5495633,-0.106585,1.0856796986048418
0.8959881,-0.3951958,-0.08207606,0.9827058946115941
0.8819825,-0.2578183,-0.1180891,0.9264493735007596
0.9382066,-0.195838,-0.1819433,0.9755447252394173
0.9848132,-0.1936688,-0.2078275,1.02496678616623
0.9282332,-0.2380931,-0.210053,0.981033873349361
0.8502289,-0.2975294,-0.1861934,0.9198265643386964
0.7434921,-0.3159691,-0.1590625,0.823357670653204
0.7014536,-0.2900362,-0.150722,0.7738703195932766
0.7685015,-0.2816602,-0.1671279,0.8353794100435442
0.8044872,-0.2484917,-0.1915988,0.8635148406913282
0.823188,-0.186911,-0.2069226,0.869132422393596
0.8665466,-0.1406506,-0.2237516,0.9059527469766179
0.9045454,-0.09596648,-0.2180187,0.9353844661391596
0.9318443,-0.08750853,-0.1951311,0.9560688722327805
0.9295849,-0.08593692,-0.1787577,0.9505091035000067
0.9323404,-0.06981376,-0.1486823,0.9466990064908632
0.981292,-0.06152255,-0.1256295,0.9912122803379468
1.045001,-0.05073933,-0.1351236,1.0549217776151978
1.118316,-0.09906672,-0.1491482,1.1325590829757177
1.172581,-0.1918092,-0.1508308,1.1977006725364565
1.158916,-0.2395947,-0.1501136,1.192906537927029
1.183234,-0.2471766,-0.1528335,1.21839937995134
1.285372,-0.2626851,-0.1668764,1.3225098763423169
1.320908,-0.3038381,-0.1974359,1.369706709512814
1.269383,-0.3306349,-0.2178429,1.329702285050086
1.190442,-0.3595581,-0.2121047,1.2615159873745954
1.102597,-0.4389779,-0.1960662,1.2028564735162088
1.061022,-0.5254829,-0.175609,1.1969705441477705
1.098373,-0.5704156,-0.165792,1.2487130139132692
1.140299,-0.5735274,-0.173594,1.2881577406466025
1.100895,-0.5740915,-0.1742934,1.253765943340626
1.00293,-0.5546227,-0.1628926,1.1575875445900627
0.8906709,-0.489849,-0.1383127,1.0258543258616692
0.8638229,-0.4723421,-0.09036294,0.9886670435097266
0.9461674,-0.4841635,-0.02411276,1.0631220385025546
0.9745347,-0.4515043,0.03307946,1.074554914881725
0.9886507,-0.423542,0.007679991,1.0755821747482848
1.02423,-0.3984521,-0.07052869,1.1012653926313702
0.9898993,-0.3735641,-0.07714594,1.0608497806041077
0.9689672,-0.3732244,-0.06361553,1.0403080424030091
0.9440389,-0.3568898,-0.06099425,1.0110885582333096
0.9095403,-0.3014997,-0.0166044,0.9583534486417524
0.9181254,-0.2333586,-0.008198051,0.9473529935347851
0.8848514,-0.2140614,-0.004711382,0.9103880931626193
0.835004,-0.2322064,0.04933567,0.8680930252866388
0.7641171,-0.2064891,0.1040533,0.7983356312805473
0.6712411,-0.1578328,0.1621242,0.7083502405665505
0.6495101,-0.1405593,0.1738139,0.6868999626231682
0.6637636,-0.1504733,0.1604225,0.6992565403370211
0.6901989,-0.1707309,0.1737869,0.7319326802292885
0.7217766,-0.1907152,0.1824863,0.7685278117975237
0.7675478,-0.2027786,0.2281348,0.8260110609875876
0.8560289,-0.1872099,0.2683027,0.9164165881958434
0.9342646,-0.1609068,0.2548815,0.9816852449444526
1.010319,-0.1496,0.2485349,1.051139495157046
1.098482,-0.1247734,0.2510856,1.1336997328212264
1.137889,-0.09972767,0.2575148,1.1709188087581772
1.110703,-0.1088639,0.2729478,1.1489181887571673
1.107576,-0.1872904,0.2818604,1.1581224351493755
1.191933,-0.4222798,0.2464127,1.2883104147286593
1.346956,-0.6906561,0.1692103,1.523131130280417
1.474071,-0.7146472,0.1190121,1.6424889081681038
1.286564,-0.5959834,0.09232942,1.4209038887162975
0.9124211,-0.538021,0.04115441,1.0600342190838266
0.7879643,-0.4670819,-0.04172152,0.9169481580837656
0.8105252,-0.5039553,-0.108557,0.9605762158632338
0.8961742,-0.6678611,-0.1354731,1.1258417324217735
1.061509,-0.6646054,-0.16775,1.263582904794996
1.101255,-0.5745298,-0.2015045,1.2583525458444824
1.078925,-0.4927883,-0.2148055,1.2054297437313133
1.062539,-0.3942693,-0.1997807,1.150803951824975
0.9757338,-0.367057,-0.1496751,1.0531808606651802
0.8744145,-0.2873486,-0.1036854,0.926240032553857
0.8545024,-0.2488834,-0.1069344,0.8964107676197782
0.8731189,-0.2896457,-0.1596515,0.933659384635505
0.8048549,-0.2077433,-0.1903978,0.8527602306590875
0.7827313,-0.2058879,-0.1721104,0.8274539897506447
0.8066498,-0.2569608,-0.1539316,0.8604694591066204
0.724719,-0.2269684,-0.1390925,0.7720615306540082
0.7032778,-0.2654602,-0.1333173,0.763441081050902
0.7330321,-0.2396661,-0.1409049,0.7839834755679675
0.7306146,-0.1485291,-0.1458012,0.7596818921110401
0.7826222,-0.1205843,-0.1572714,0.8073242066216583
0.8931255,-0.0982102,-0.1838553,0.9171265853045478
1.048184,-0.09854751,-0.2249536,1.0765711456918023
1.097942,-0.09536217,-0.2383414,1.127553635879495
1.087484,-0.1048885,-0.1967561,1.1101063059795038
1.183235,-0.1388135,-0.1503129,1.200794828817005
1.213955,-0.1591699,-0.1425463,1.2326156119142333
1.244474,-0.2469526,-0.1832995,1.2819125672303124
1.398065,-0.369003,-0.2431484,1.4662435345659872
1.438932,-0.4593355,-0.2688736,1.5342123109143697
1.332095,-0.5104231,-0.2751175,1.45282430763147
1.200483,-0.5257293,-0.3028884,1.3450992948559781
1.078499,-0.537571,-0.3291669,1.2491971506121882
1.032572,-0.5117791,-0.336821,1.2006544750350994
1.070863,-0.5047366,-0.3202193,1.2263959394261912
1.090319,-0.5501297,-0.2511418,1.2468000690930081
1.02614,-0.5685062,-0.1676013,1.1850117277057346
0.9355672,-0.5281425,-0.1258201,1.0816890420014893
0.8830871,-0.4336978,-0.1167994,0.9907465406205616
0.9210341,-0.3741162,-0.1141826,1.0006519927567277
1.011802,-0.3465645,-0.12007,1.0762281564632334
1.022436,-0.3191493,-0.137325,1.0798563818450535
0.9849752,-0.3374252,-0.1030551,1.0462563088679993
0.9218789,-0.3414299,-0.02122089,0.9833033148787875
0.8150968,-0.3378425,0.01775657,0.8825166536415361
0.7557077,-0.3306138,0.01703104,0.8250391923498007
0.713128,-0.280335,0.009744355,0.766312083333785
0.6732173,-0.2517398,0.02039804,0.7190344497721731
0.6629993,-0.2477874,0.05382354,0.7098335303839778
0.6215294,-0.2465159,0.08197409,0.6736383565745778
0.6008883,-0.2465796,0.1086324,0.6585356835759244
0.6723668,-0.2522896,0.1265107,0.7291996387992044
0.8104396,-0.2656302,0.1587274,0.8675056979126765
0.9214042,-0.248819,0.1888384,0.972911371016497
0.9235198,-0.2414175,0.182869,0.97191167369226
0.9194198,-0.2705029,0.221973,0.9837563724161841
1.019379,-0.2935215,0.2719813,1.0951083253052822
1.134271,-0.3045644,0.2555973,1.2019401628016473
1.185421,-0.3292758,0.2139048,1.2487596899202345
1.219092,-0.4136793,0.1534395,1.2964796750712062
1.2528,-0.5422356,0.09415634,1.3683540120413122
1.255202,-0.5998577,0.07199484,1.3930343061245531
1.174191,-0.5183966,0.06651194,1.2852561524984518
1.01451,-0.4212429,0.03085931,1.0989214794124675
0.8908241,-0.4249713,-0.02941904,0.9874379286208433
0.8740974,-0.4810586,-0.04761643,0.9988648385675937
0.9506518,-0.5524798,-0.05497785,1.1009065983278974
1.034346,-0.5592418,-0.1082613,1.180823249966281
1.049096,-0.4748032,-0.1533712,1.1617070288741822
1.025609,-0.4068192,-0.1512893,1.1136714662161953
0.9942628,-0.3530853,-0.1266624,1.062671684065069
0.9539395,-0.3129516,-0.106843,1.009630972312067
0.9155419,-0.2935903,-0.1073186,0.967434502597287
0.9203619,-0.2969391,-0.123115,0.9748826387342324
0.938543,-0.3500422,-0.1370112,1.0110215495009391
0.9044744,-0.3628102,-0.1389327,0.9843817738096791
0.8601185,-0.3496668,-0.1217602,0.9364273871307535
0.7884353,-0.3317047,-0.0973704,0.8608944331823385
0.6985394,-0.2567881,-0.09308342,0.7500412953517069
0.6741529,-0.2012915,-0.106625,0.7115962978934475
0.6732211,-0.1536217,-0.1187906,0.7006693106198244
0.6972603,-0.1200715,-0.1318092,0.7196962944693964
0.7892085,-0.1424111,-0.1706135,0.8199023992267068
0.8917546,-0.1437992,-0.2154628,0.9286165488109933
0.9173846,-0.1441941,-0.2067587,0.9513861481110916
0.9016186,-0.1591374,-0.1875949,0.9345761918916671
0.9638037,-0.1557996,-0.2106495,0.9987814071878292
1.052431,-0.162395,-0.2306955,1.0895887111686913
1.150687,-0.2080627,-0.262801,1.1985136731390635
1.225508,-0.3105955,-0.29926,1.2991905057705164
1.187937,-0.4121727,-0.287437,1.2898452153507762
1.249685,-0.4333049,-0.2865415,1.35335574288923
1.393204,-0.3885851,-0.2897885,1.4751247880400695
1.417811,-0.3720818,-0.2730219,1.4910311383374426
1.368077,-0.4418824,-0.304378,1.4695375804118656
1.213767,-0.534307,-0.3477009,1.3709887732577573
1.068854,-0.5821731,-0.3525885,1.2671594382759652
1.019793,-0.5931124,-0.3148036,1.2210083490524215
0.9929935,-0.5943409,-0.2564578,1.185347122000935
1.023261,-0.5714792,-0.2376272,1.1958755103828658
1.014095,-0.5067349,-0.2122176,1.1533452378419784
0.9883528,-0.4357796,-0.1546536,1.091174987358563
0.977634,-0.3763856,-0.09982253,1.0523302216219779
0.9250279,-0.3406541,-0.05146393,0.987102004716972
0.965593,-0.3356793,-0.06399863,1.0242784088026882
1.014948,-0.3314475,-0.1066759,1.07301287764922
0.997688,-0.3463563,-0.1090188,1.0617104740215808
0.9886448,-0.3743308,-0.0823225,1.0603391355608498
0.9174187,-0.3549024,-0.02178679,0.9839143503648853
0.8079066,-0.310842,0.01342305,0.8657459220573104
0.7025226,-0.2726076,0.0106517,0.7536354329524388
0.6398286,-0.229993,0.04316752,0.6812788358740571
0.6486858,-0.1977995,0.07582793,0.6823985523797473
0.6465232,-0.1778682,0.09140484,0.6767452914390358
0.628813,-0.1959537,0.10202,0.666492101913211
0.6215648,-0.2499141,0.1074768,0.6784917984147562
0.6592145,-0.2765407,0.1419336,0.7288234783373132
0.769601,-0.292097,0.1717921,0.8409036105478499
0.8957789,-0.2936896,0.1833831,0.9603659615995248
0.9834562,-0.2697367,0.2159395,1.0423885323168036
1.022367,-0.2725513,0.2612203,1.0898415201086715
1.076415,-0.2765335,0.2810888,1.146364227605123
1.143543,-0.2849774,0.2616109,1.2072046116373851
1.170413,-0.324544,0.244808,1.2390021611639745
1.225691,-0.3941245,0.2150829,1.3053402632469666
1.281976,-0.5020971,0.163273,1.3864422219960737
1.237032,-0.5203188,0.1608859,1.3516153652116603
1.143721,-0.4434749,0.162918,1.2374611054473632
1.037113,-0.4222776,0.1045851,1.1246598549662783
0.9153085,-0.4271395,0.02672419,1.01042168670494
0.8861466,-0.463023,-0.03883792,1.0005770731185513
0.9479764,-0.5596773,-0.06579017,1.1028264965808896
0.9751429,-0.6120076,-0.06522397,1.1531310177688963
0.9832813,-0.596576,-0.08657372,1.153360328648566
0.9758363,-0.542705,-0.1177942,1.1227914654896205
0.9233171,-0.4615459,-0.1377213,1.0413962941325026
0.9015443,-0.4046376,-0.1415806,0.9982779064431958
0.8940244,-0.3945079,-0.1237645,0.9850044479178864
0.859097,-0.3754665,-0.1189665,0.9450797723755916
0.8448392,-0.3455423,-0.12381,0.9211306481959711
0.8842507,-0.3601151,-0.1167261,0.9618768986308539
0.9470557,-0.35028,-0.1255907,1.0175380097219857
0.9513596,-0.3070295,-0.1473606,1.0104787720752821
0.9145133,-0.2874193,-0.1732487,0.974145544536888
0.8731671,-0.2559956,-0.1786993,0.9273014458967807
0.8146403,-0.2679765,-0.1443069,0.8696405604178947
0.7775096,-0.2848627,-0.1187999,0.8365293492660374
0.747374,-0.2295272,-0.1115186,0.7897385830525188
0.7405549,-0.1812599,-0.1318812,0.7737372694755371
0.8153377,-0.1323222,-0.1812373,0.845654591760383
0.9185673,-0.1246426,-0.2194988,0.9526181740684407
0.9920325,-0.1648746,-0.2502755,1.0363155603780443
1.030081,-0.1565813,-0.2383799,1.0688356032593134
1.04066,-0.1439249,-0.2014707,1.069709332201276
1.043348,-0.1372355,-0.1958966,1.0704130555331477
1.083896,-0.1689134,-0.1779343,1.1113158374791794
1.159673,-0.2529108,-0.1832024,1.20098645248454
1.216225,-0.3081333,-0.2401774,1.2774328024067056
1.27061,-0.3775536,-0.2989247,1.3588055303254583
1.289145,-0.4463318,-0.3383667,1.4055600059709759
1.225517,-0.5016757,-0.3187893,1.3620561820475614
1.156307,-0.5935819,-0.3046111,1.3349806262638495
1.109624,-0.6294081,-0.33103,1.3179532763423785
1.094432,-0.5962636,-0.318095,1.2862721766150274
1.13539,-0.5661837,-0.3070336,1.3053520849849858
1.158163,-0.5235699,-0.2952169,1.304844815600928
1.102813,-0.4584777,-0.2306009,1.2163778563617065
1.009841,-0.4051905,-0.1401926,1.0970925902885362
0.9558226,-0.3814056,-0.05986957,1.030849862877279
0.9706729,-0.3568762,-0.06907315,1.0365025812663335
1.011832,-0.3305306,-0.1186294,1.071040339251851
1.028826,-0.315427,-0.1158643,1.0823131093262661
0.9955804,-0.3290497,-0.08928412,1.0523429536127584
0.9253072,-0.3860149,-0.03095648,1.0030748830709701
0.8624075,-0.4014692,-0.004574613,0.9512860461969311
0.8145226,-0.3307482,-0.02922656,0.8795996984557427
0.7621436,-0.2291165,-0.01648447,0.7960081503002284
0.7078019,-0.1670314,0.005147413,0.7272616544890583
0.6526665,-0.1571223,0.05404641,0.6734849603468723
0.6076288,-0.1400923,0.1193973,0.6348970990294569
0.6021601,-0.1623171,0.1164019,0.63442338332381
0.6258894,-0.2336302,0.1341406,0.6814061284966257
0.681033,-0.2756943,0.1911376,0.7591751288571367
0.8024369,-0.3043259,0.1793304,0.8767431917366567
0.9198841,-0.2979567,0.1729039,0.982273236499351
0.9564988,-0.2722093,0.2415208,1.023386610348489
0.9623528,-0.2730167,0.2850186,1.0401426019987308
0.9667214,-0.2648374,0.2862865,1.042424612976387
0.9990798,-0.2754525,0.2851889,1.0748801027126234
1.090341,-0.3082266,0.2759679,1.1661927006541286
1.166308,-0.3528512,0.2713504,1.2483626715764935
1.220634,-0.4038454,0.2507275,1.3099247109331933
1.29446,-0.4159602,0.2227589,1.3777775971154596
1.327928,-0.4712223,0.1918194,1.4220541169089347
1.256281,-0.5394332,0.1477042,1.375153321968456
1.098637,-0.469137,0.1234434,1.2009708803886796
0.9661923,-0.3987853,0.02666313,1.0455946626569863
0.9406719,-0.4487218,-0.1251715,1.0497060453560798
0.9895574,-0.5145523,-0.1752866,1.1290320232259181
1.027497,-0.5996161,-0.1835983,1.203743281663952
1.022784,-0.6633913,-0.1750486,1.2315913039371664
0.992973,-0.6093974,-0.1146069,1.1706815584877768
0.9408556,-0.5438331,-0.0955524,1.0909142779580483
0.9382805,-0.4719681,-0.1076718,1.0558017809291191
0.9759188,-0.3458983,-0.1234484,1.0427380522446132
0.9624101,-0.2782697,-0.15897,1.014366150568965
0.929032,-0.2423734,-0.1408802,0.9704084463789462
0.8662839,-0.2185176,-0.1054194,0.8996171334547436
0.8139767,-0.2417545,-0.1198066,0.8575295492382172
0.8287974,-0.2372054,-0.1402265,0.8734042611174794
0.8145742,-0.2467695,-0.1686791,0.8676859755768213
0.7813963,-0.2763051,-0.1716864,0.8464046939169584
0.7544411,-0.272281,-0.1447653,0.8150308634734638
0.7181889,-0.2880915,-0.1463909,0.7875419379679218
0.7234231,-0.2911737,-0.1413411,0.7925278618032997
0.7744952,-0.23958,-0.1632967,0.8269868218139452
0.8842768,-0.1676955,-0.2175544,0.9259574270439489
0.9865571,-0.1337219,-0.2247513,1.0206319635165801
0.9875144,-0.1603188,-0.2246214,1.0253494922116848
0.9628249,-0.1646579,-0.2136571,0.99989667889879
0.9705006,-0.145868,-0.1881502,0.9992744296660453
1.003715,-0.1595083,-0.2098162,1.0377425194990952
1.075811,-0.201357,-0.2296458,1.1183251506729337
1.167955,-0.2851897,-0.2259163,1.223311171213923
1.23634,-0.3646234,-0.2438054,1.311841412860838
1.258708,-0.3813881,-0.2676851,1.3421840502880444
1.240837,-0.3706609,-0.2813209,1.3252197599396938
1.195008,-0.3709192,-0.2931956,1.285141561405591
1.144448,-0.4015765,-0.2790812,1.2445526209243585
1.121468,-0.471638,-0.2326672,1.2386552805457376
1.138109,-0.5609907,-0.2214572,1.288039577341989
1.154256,-0.6166085,-0.2628045,1.3347580908271355
1.139702,-0.6070791,-0.2847083,1.3223178508020301
1.083049,-0.5558706,-0.2417075,1.2411324570333377
0.7717327,-0.2322407,0.1469182,0.8192020876908335
0.8392558,-0.2450513,0.1864144,0.8939523287025377
0.9330039,-0.2298422,0.2125075,0.9841154159306214
0.9965124,-0.2101534,0.2528967,1.0493608320097572
1.038171,-0.196669,0.2419762,1.0839881005658871
1.100293,-0.1884625,0.236409,1.141074938396357
1.112504,-0.1589004,0.2451707,1.1502274380637292
1.100941,-0.1718492,0.227098,1.137179288690064
1.14046,-0.3066834,0.2215067,1.2015693644481995
1.206549,-0.5241398,0.1926101,1.3295042948283584
1.237559,-0.648782,0.1293727,1.4032845960496716
1.160203,-0.6033967,0.04237393,1.3084166495132714
1.006895,-0.5464409,-0.04118348,1.1463556504168855
0.9057983,-0.5110529,-0.07344006,1.0426116579504103
0.9339724,-0.4888676,-0.1182037,1.0607865426112881
1.006082,-0.5264431,-0.1624529,1.1470546076713262
1.04314,-0.5228905,-0.1625567,1.1781257213494407
1.089238,-0.4935269,-0.1611105,1.206633670538768
1.050675,-0.4724524,-0.1444329,1.1610297534917742
0.943845,-0.4131373,-0.1074289,1.035889367274083
0.9306263,-0.3835692,-0.06790114,1.0088613414407501
0.9229925,-0.3502803,-0.06844311,0.9895938070394399
0.9056903,-0.2766258,-0.1025642,0.952531452426307
0.9098055,-0.2152966,-0.1080017,0.941149850451404
0.8474401,-0.165005,-0.1265566,0.8725811974346972
0.7706101,-0.166505,-0.1205447,0.7975555566511339
0.6921269,-0.2094933,-0.07438783,0.7269529817674654
0.6352099,-0.2459875,-0.07454011,0.6852428001906128
0.6536432,-0.264362,-0.07692421,0.7092630217587578
0.6828994,-0.2290361,-0.1262119,0.7312582097489094
0.7579435,-0.1738041,-0.2305105,0.8110618379502946
0.8867342,-0.133972,-0.2536643,0.9319826260870585
0.9799765,-0.1102331,-0.2460163,1.0163804881802632
1.031976,-0.11905,-0.2384086,1.065826452866488
1.0954,-0.1123841,-0.1945659,1.1182071522645614
1.186666,-0.06248206,-0.1791385,1.20173657910546
1.23603,-0.02867943,-0.1908464,1.2510056031041925
1.221872,-0.06518729,-0.1961919,1.2392384067592297
1.183379,-0.1649407,-0.2091592,1.2129875774723045
1.180277,-0.2825156,-0.2414421,1.2374017733237535
1.296838,-0.3800998,-0.2875182,1.3816408258065045
1.487394,-0.4221166,-0.313032,1.5775019392240253
1.561322,-0.4750031,-0.3078859,1.660767310646624
1.407165,-0.6288119,-0.3022904,1.5706359313153286
1.158354,-0.7210497,-0.3010688,1.3972612789022425
0.9805353,-0.6334026,-0.2962137,1.2043217528138153
0.9343739,-0.5451529,-0.2950231,1.1212871616643214
0.9771389,-0.5339769,-0.2780676,1.1477165807796714
0.9891751,-0.5104774,-0.2343653,1.1375331415896681
1.021651,-0.4425556,-0.171514,1.1265182098343374
1.048292,-0.3568579,-0.1028042,1.1121296604236621
1.004631,-0.3284986,-0.08995039,1.0607949137435153
1.020368,-0.3272958,-0.1092636,1.0771313431548633
0.9907353,-0.2815132,-0.09397796,1.0342330363153613
0.8842766,-0.2783659,-0.08973121,0.9313884096543364
0.8269036,-0.295127,-0.06798177,0.880619685718127
0.7688114,-0.2671319,0.007121636,0.8139294431748286
0.7529236,-0.2626384,0.04878439,0.7989072494972067
0.7203281,-0.2454702,0.05662447,0.7631084597489606
0.6339963,-0.2093302,0.06291485,0.6706181621431472
0.6018805,-0.1832944,0.06916843,0.632962277754587
0.5763267,-0.1565861,0.1097913,0.6072279649372136
0.5823318,-0.1868664,0.1571146,0.6314383376651753
0.6151023,-0.232059,0.176022,0.6805776689183167
0.671718,-0.249521,0.2079127,0.7461189528394853
0.8287873,-0.2258115,0.2674906,0.8996835239471155
0.9639322,-0.152269,0.2807445,1.0154647255508633
1.028632,-0.1422079,0.2556985,1.0694337759527983
1.115187,-0.1840314,0.2797878,1.1643843069123698
1.223761,-0.2283958,0.2943982,1.2792286452162804
1.234205,-0.2938206,0.2553609,1.2941413045947379
1.210389,-0.412881,0.1632114,1.2892440469406714
1.401772,-0.6902239,0.01955667,1.5626119913326848
1.534547,-0.8680396,-0.008040259,1.76306321161266
1.270566,-0.6465032,0.05230802,1.4265484488521798
0.9129686,-0.3967147,0.03018319,0.9958941925428756
0.8058947,-0.4081323,0.01067712,0.9034114470621203
0.9158178,-0.4830371,-0.02791837,1.0357733913152563
0.9999397,-0.5578856,-0.1387888,1.1534201651301619
1.014216,-0.5977146,-0.1625671,1.1884127648723612
1.02329,-0.5298581,-0.1228432,1.1588625811638973
0.973312,-0.4709884,-0.1265657,1.0886621141084363
0.9461015,-0.4177304,-0.1227886,1.0414815292055688
0.9259658,-0.3333936,-0.1078633,0.9900497193462002
0.8691726,-0.3044846,-0.1166909,0.9283257221313702
0.8564886,-0.3074619,-0.1429608,0.9211641179606433
0.8264147,-0.318685,-0.1736114,0.9025864522642969
0.8144757,-0.329676,-0.1838224,0.8976901501120806
0.8258647,-0.297937,-0.1843289,0.8971042871652659
0.8018056,-0.2469655,-0.1854558,0.8592310702804282
0.8223667,-0.2126214,-0.1573374,0.8638575730093533
0.8235938,-0.2045297,-0.1278268,0.8581834514710536
0.7982875,-0.203911,-0.1316404,0.8343691170515661
0.7966732,-0.2100099,-0.1382445,0.8354064205382312
0.7756873,-0.207636,-0.1509622,0.8170636950116741
0.8218389,-0.1424597,-0.1746391,0.8521811772892605
0.9298092,-0.06739109,-0.179183,0.9493119902882445
1.019219,-0.0740741,-0.1843458,1.038401519754979
1.079406,-0.1152071,-0.1984886,1.1035341920649175
1.10702,-0.1197463,-0.1858545,1.128881903448691
1.178391,-0.1301872,-0.1540686,1.1955296689881016
1.276795,-0.170963,-0.1367725,1.295430637336577
1.337045,-0.2471582,-0.1467844,1.367597224308239
1.360623,-0.3780753,-0.190861,1.4250136146437655
1.303273,-0.4761191,-0.256437,1.4110173084986626
1.196244,-0.5102679,-0.2882592,1.33209098926877
1.103378,-0.5830217,-0.2651848,1.2758057421511826
1.051223,-0.7256034,-0.2549936,1.30253285020437
1.070922,-0.809137,-0.280095,1.3711417956863543
1.112195,-0.7412807,-0.2786846,1.3653350872568426
1.13269,-0.6304524,-0.2453898,1.3193456782472894
1.096543,-0.5027549,-0.1948096,1.221932821629393
0.9740276,-0.3417612,-0.1130873,1.038421504403915
0.9023473,-0.2221155,-0.04023291,0.930153015478963
0.9831366,-0.1584217,-0.04364449,0.996774724196902
1.093543,-0.1995171,-0.1204332,1.1180999605150024
1.088854,-0.2431985,-0.1589843,1.1269536598124787
0.9725722,-0.2401267,-0.09803484,1.0065626389448177
0.8301449,-0.348245,-0.01707588,0.9003925370074901
0.7557704,-0.4266712,0.02579414,0.8682756175800053
0.7694159,-0.4094317,0.0366207,0.8723395094836586
0.7494318,-0.3504827,0.03801014,0.8282094642017498
0.6908736,-0.1920661,0.04601188,0.7185491013475032
0.6746628,-0.1011945,0.07020833,0.6858129702298426
0.6610384,-0.100227,0.09823385,0.675771490290455
0.6635283,-0.1170118,0.1039638,0.6817404476416006
0.6583512,-0.2127983,0.1382056,0.7055566645533795
0.6318356,-0.2901834,0.1934847,0.7217055910806082
0.6691133,-0.2809961,0.1981329,0.7522819036202519
0.7303011,-0.249453,0.2115176,0.8001913464790594
0.8091266,-0.2474089,0.2542609,0.8834849313347568
0.9047093,-0.2151828,0.2659415,0.9672266726804942
0.9582565,-0.1783752,0.2771109,1.0133428258324524
1.024603,-0.2141926,0.2955945,1.087688322054627
1.106125,-0.2175066,0.2958535,1.1654831316371808
1.162898,-0.2508117,0.3052606,1.2281784484240268
1.204526,-0.3262961,0.3171751,1.2876148778307976
1.254728,-0.3646695,0.3102425,1.34297304776399
1.355679,-0.4813838,0.2425744,1.4589168082789368
1.414199,-0.5514539,0.1398846,1.5243450779739376
1.287403,-0.4770068,0.1351253,1.3795654454774264
1.089622,-0.4063523,0.1235758,1.1694739299979844
1.003996,-0.4099547,0.009258485,1.0845075120129806
0.9341775,-0.5126897,-0.04952152,1.066766474414832
0.8319117,-0.6664326,-0.07177377,1.0683449634830797
0.8368319,-0.7950627,-0.1074123,1.1592884576239815
0.871865,-0.819692,-0.128058,1.2035125277507501
0.8701459,-0.7621665,-0.1803056,1.1707099428980776
0.9177151,-0.6980408,-0.2098189,1.171958162235265
0.9584464,-0.5877989,-0.2122345,1.1441899018538924
0.9667627,-0.4877974,-0.2207889,1.105135358189783
0.9697847,-0.4200931,-0.2087236,1.0772771779902608
0.9321829,-0.3300296,-0.2158936,1.012173178092331
0.8963963,-0.2572169,-0.2171204,0.9575114246814291
0.9008095,-0.2241838,-0.2186405,0.9536874748642451
0.9072923,-0.2376831,-0.2450149,0.9693837603791957
0.8885338,-0.2646706,-0.2315909,0.9556030479281709
0.8384018,-0.2842638,-0.2049712,0.908700544218567
0.7639206,-0.2879942,-0.1782188,0.8356298720195682
0.7125677,-0.2476061,-0.1619774,0.7715556920606963
0.72923,-0.2091629,-0.1819727,0.7801535587188589
0.7810891,-0.1578917,-0.1876681,0.8186875391902029
0.8515258,-0.09712447,-0.1941569,0.8787640482837421
0.929546,-0.1169846,-0.1827792,0.9545414599197878
0.9526178,-0.1448883,-0.1479098,0.9748592725566957
0.9548519,-0.08623405,-0.1485448,0.9701773136494444
0.9915748,-0.03760078,-0.1182413,0.9993074640356382
1.026532,-0.04866702,-0.07460266,1.030389238462221
1.049819,-0.04472755,-0.0880271,1.0544521121532322
1.085971,-0.03275012,-0.07775358,1.089243408244379
1.109353,-0.04375838,-0.04989335,1.1113362321113476
1.115565,-0.1025112,-0.06510992,1.1221555672155472
1.19404,-0.2342472,-0.07970137,1.2194078811815663
1.297301,-0.320811,-0.1015985,1.3402357395340008
1.318479,-0.2999534,-0.1406955,1.3594683296542107
1.331679,-0.3074389,-0.1339925,1.3732594898017128
1.31902,-0.4243646,-0.122139,1.3909769981758002
1.25531,-0.5924402,-0.1666924,1.3980611370372185
1.228442,-0.7240631,-0.2442085,1.4467117583049707
1.186476,-0.7525607,-0.3109547,1.4390155423804776
1.120653,-0.7157631,-0.2728017,1.357424299640131
1.069548,-0.6886613,-0.1777546,1.2844391804374584
1.018863,-0.5959025,-0.1427261,1.1889290735348599
1.028377,-0.4326314,-0.1080721,1.1208964096620928
1.05347,-0.3212384,-0.1071978,1.1065642859135658
1.034387,-0.2747602,-0.1335324,1.0785548364004494
0.9971471,-0.2778575,-0.07456027,1.0378180780884156
0.8855677,-0.2888971,-0.03169456,0.9320387496264806
0.7638475,-0.2899356,-0.02564723,0.8174248808363267
0.7447088,-0.3051083,-0.008857937,0.8048358432464511
0.7543303,-0.2911,-0.009069214,0.8086010525226071
0.7351647,-0.2630386,0.0339796,0.781544019510232
0.7108124,-0.2296195,0.09551829,0.7530624984013837
0.7069181,-0.2002185,0.1395401,0.7478583337490262
0.7179773,-0.2041876,0.1562837,0.7626326600629821
0.7328879,-0.1938299,0.1409473,0.77107771688573
0.7624329,-0.2063012,0.1438324,0.8028398790628241
0.7791688,-0.2356576,0.1268222,0.8238460983363579
0.7965607,-0.2236003,0.156384,0.8419988114009307
0.8415777,-0.2234541,0.2317339,0.9010468136302963
0.8938647,-0.2275071,0.2234593,0.9490456475918269
0.9438738,-0.2294226,0.2328791,0.998881952451845
0.9628993,-0.241924,0.2708244,1.0291006458805911
0.994329,-0.2317033,0.2826703,1.0593767403402718
1.077292,-0.245781,0.3022195,1.1455579336747879
1.166664,-0.338128,0.2572465,1.2416163638750295
1.276744,-0.4461742,0.191157,1.3659017742614732
1.30801,-0.4619564,0.1887567,1.3999724880853373
1.22157,-0.4644094,0.1889786,1.3204628987466176
1.200163,-0.5376242,0.158588,1.3246060398241586
1.171879,-0.5322336,0.1295235,1.2935800449381591
1.042624,-0.5047335,0.07283521,1.1606574340493383
0.9103901,-0.5553609,-0.041339,1.0672135570483632
0.8398824,-0.5328334,-0.1026954,0.999930109140874
0.9390078,-0.5075685,-0.119885,1.0741200323418654
1.032262,-0.530219,-0.1785458,1.17412760264915
0.9822758,-0.4785486,-0.1771041,1.1069057647624796
0.9867903,-0.4268535,-0.1361526,1.0837419144441633
0.9674329,-0.4000283,-0.1341877,1.0554408536884434
0.9086428,-0.3801802,-0.1058598,0.990643740059927
0.9027062,-0.3650754,-0.09114487,0.9779907558514636
0.8761207,-0.2896519,-0.1153499,0.9299415592240783
0.8801182,-0.2217852,-0.1281966,0.9166411997951215
0.8640902,-0.1987329,-0.1507962,0.8993809722319512
0.8153974,-0.2124116,-0.1613858,0.8579259782655845
0.8020384,-0.2424286,-0.1551396,0.8521182527446999
0.7626375,-0.2090033,-0.1601963,0.8068216595697155
0.7447181,-0.1542127,-0.1531882,0.7757920017170453
0.7434353,-0.06955275,-0.1468043,0.760976433811943
0.7365226,0.02161873,-0.151986,0.7523514165558359
0.7720218,0.01449307,-0.1781805,0.7924493670472044
0.8399022,-0.01890624,-0.2311653,0.8713383656191592
0.9931381,-0.09610827,-0.2550648,1.0298631644218774
1.176598,-0.2369703,-0.2615085,1.228382868758084
1.235203,-0.2848915,-0.2973976,1.3020502872266533
1.167681,-0.2261337,-0.2999745,1.2266214039739156
1.056209,-0.167853,-0.2081669,1.0895345517906305
0.9754272,-0.1643161,-0.1189059,0.9962914313963862
1.010375,-0.2054175,-0.1555428,1.042711634423962
1.199374,-0.2900403,-0.2604045,1.2611232577033618
1.403352,-0.3635753,-0.3369192,1.488320658326938
1.440683,-0.3445093,-0.3713855,1.5271481113126324
1.312908,-0.3556407,-0.3622142,1.4076245417873794
1.167091,-0.4786558,-0.3556921,1.310621855134825
1.090731,-0.6360135,-0.3520706,1.3107864028618887
1.06202,-0.7623306,-0.3174925,1.345301420371141
1.082631,-0.7635979,-0.2965721,1.3576180042794879
1.078945,-0.6522656,-0.2489854,1.2851328551482606
1.006343,-0.4830827,-0.1489973,1.126186185359943
0.9519131,-0.2795768,-0.08179671,0.9954860314523122
0.9390666,-0.1581291,-0.07066469,0.9549054350642088
1.011437,-0.1213118,-0.1083931,1.0244366363596382
1.08245,-0.1149705,-0.1523781,1.0991520839855875
1.016921,-0.1842263,-0.1545971,1.0449726853756034
0.9139529,-0.3063651,-0.09790607,0.9688937384766529
0.8185594,-0.3997862,-0.0105968,0.911032814562154
0.7770417,-0.4115689,-0.001527485,0.8793094427995898
0.7882454,-0.3817667,-0.01568494,0.8759695435303979
0.7383156,-0.3640795,0.0197956,0.8234413599661909
0.7156667,-0.3145416,0.01639652,0.7819105380333228
0.6929365,-0.2181974,0.03329949,0.7272413316315774
0.6013269,-0.1214247,0.1169319,0.6245086610058423
0.6261297,-0.1220308,0.1559836,0.6567045003954899
0.7299576,-0.2269882,0.1417791,0.777472220683035
0.7907816,-0.2977531,0.1451287,0.8573533618187194
0.8479424,-0.3256699,0.1783337,0.9256727856210638
0.8510189,-0.3172252,0.2005186,0.9300928473105307
0.872542,-0.2641473,0.2195321,0.9377087398503333
0.9794216,-0.2368033,0.2526955,1.0388443045797093
1.047836,-0.2006336,0.2516074,1.0961388635021203
1.066059,-0.1879876,0.2366373,1.1080696462705086
1.005309,-0.2047223,0.2443694,1.054643925339093
0.9455078,-0.2040167,0.2323571,0.9947852208693795
1.094791,-0.3458412,0.1856396,1.1630286025659904
1.305575,-0.583332,0.1167664,1.4347253029824072
1.338434,-0.6604299,0.06983776,1.4941387277933156
1.173309,-0.5199911,0.08165545,1.285967482510702
0.9679728,-0.3405978,0.07050777,1.028566744812923
0.913685,-0.3199718,-0.009005468,0.9681339424243626
0.9422365,-0.4034084,-0.08647255,1.0286036462244885
0.9809946,-0.534129,-0.1223958,1.123665842556318
1.064388,-0.6551186,-0.1269518,1.2562718472262282
1.078707,-0.6500137,-0.1333083,1.2664508300307518
0.9909071,-0.5872393,-0.1266585,1.1587878373184413
0.9146324,-0.5026338,-0.09469207,1.0479311772025321
0.8970635,-0.4160067,-0.1070263,0.9946050102270901
0.9412579,-0.3585867,-0.1397449,1.0168969922294537
0.9953213,-0.3014962,-0.1621824,1.0525528868982736
1.008174,-0.288932,-0.1893483,1.065715390530178
0.9987326,-0.2975753,-0.1759511,1.0568711629446894
0.9467438,-0.3026526,-0.1578447,1.0063982156399573
0.844576,-0.309491,-0.133268,0.9093149392157813
0.7443873,-0.2841266,-0.08513489,0.8013041412124126
0.6878158,-0.2497996,-0.09082754,0.7373873181118941
0.6878276,-0.2025127,-0.1083988,0.7251679121586186
0.7011151,-0.1382039,-0.1282541,0.7260246659653031
0.706081,-0.0829731,-0.1868143,0.7350744836879457
0.729417,-0.06557886,-0.2052146,0.760567405836629
0.7946022,-0.08792785,-0.1903006,0.821789681981237
0.9076493,-0.1065126,-0.1954305,0.9345401361522683
0.999472,-0.1406444,-0.1909029,1.0272142148859555
1.038279,-0.163904,-0.1618879,1.0635297340570267
1.082701,-0.1284493,-0.1382046,1.0990182844396403
1.144041,-0.08696816,-0.1304462,1.1547335110878292
1.186567,-0.06827464,-0.1205902,1.1946316035883906
1.179226,-0.1011424,-0.1052359,1.1882248687864474
1.167133,-0.2017855,-0.09853411,1.1885393550626508
1.207791,-0.3145296,-0.1284854,1.2546698637371985
1.250012,-0.3807264,-0.178384,1.3188265402458959
1.263301,-0.3985872,-0.1884923,1.3380323313597957
1.240727,-0.4380114,-0.1619041,1.3256961992310945
1.195023,-0.4777274,-0.1482103,1.2954805024645681
1.177435,-0.4560848,-0.1800143,1.2754495961113204
1.125293,-0.4384433,-0.2334897,1.2300545935729763
1.049247,-0.453363,-0.2594963,1.1720902723304591
1.029921,-0.5318407,-0.2544547,1.1867345915450431
1.002587,-0.6748056,-0.2329057,1.2307673847859513
0.9611838,-0.6974971,-0.1848536,1.2018932379058507
0.9214769,-0.5958643,-0.1025545,1.102130376461129
0.8923208,-0.5071493,-0.06355401,1.0283364890881828
0.9461646,-0.4101039,-0.114283,1.0375322950045314
1.016134,-0.3616502,-0.1639295,1.09095923575828
1.030573,-0.399792,-0.1777476,1.1196019653871458
1.006865,-0.4364512,-0.1548234,1.1082585724432723
0.9520242,-0.4683951,-0.09040874,1.064855758944862
0.907048,-0.4576142,-0.05347718,1.0173527604161658
0.8767445,-0.3422141,-0.03737541,0.9419067521744009
0.855666,-0.1451648,-0.0280403,0.8683451969920315
0.8156656,0.02910556,-0.02926813,0.8167093290026571
0.7393962,0.02972539,0.03498154,0.7408198482261822
0.7305757,-0.04251953,0.1184023,0.7413284484674799
0.7640691,-0.0613817,0.1377038,0.7788014119171458
0.7623775,-0.1456937,0.1481492,0.7901862389250904
0.7820564,-0.2455831,0.1891674,0.8412535747379205
0.8075046,-0.2957499,0.2238854,0.8886261051220192
0.8131099,-0.3071096,0.2150313,0.895378398147878
0.8161295,-0.2242748,0.2033879,0.8704787099933576
0.8235833,-0.2010025,0.2274469,0.8777377452090972
0.852872,-0.2270521,0.269376,0.9227712251010052
0.8874378,-0.1912411,0.3342683,0.9673956292970007
0.9397777,-0.1955607,0.3683345,1.0281519424151422
0.9994192,-0.1667852,0.3387733,1.0683741802667124
1.032587,-0.1173002,0.333745,1.0915039965634756
1.077926,-0.1247161,0.3447366,1.1385613248546473
1.156205,-0.2009717,0.3129108,1.2145422162207988
1.251064,-0.4309353,0.2632246,1.3491306663652893
1.327458,-0.6139963,0.1852713,1.4742664795692062
1.314123,-0.6297439,0.0866995,1.4597991101574421
1.099116,-0.5999932,0.0274676,1.252518379327026
0.7909291,-0.5927456,0.0180044,0.9885546752534884
0.7518574,-0.6755125,-0.01682229,1.0108855904759222
0.9248806,-0.7400681,-0.1399669,1.1927680621099728
1.001964,-0.7156083,-0.2287284,1.2523353294111965
1.014222,-0.634394,-0.2169726,1.215803899348394
0.9789892,-0.494373,-0.1863355,1.1124501945731728
0.9003858,-0.3757776,-0.1394945,0.9855770436823547
0.8963419,-0.3030257,-0.1374161,0.9561048902161886
0.9199542,-0.28646,-0.1680679,0.9780704886193275
0.9351207,-0.2863183,-0.1491004,0.9892723698575333
0.9475714,-0.2578186,-0.1512275,0.993595362992486
0.9253364,-0.264423,-0.151271,0.9741919171985364
0.8985859,-0.2733556,-0.1433049,0.9501137816567972
0.8603463,-0.2827797,-0.1616634,0.9199430251680482
0.8412033,-0.3102759,-0.1359155,0.9068446113816578
0.8558924,-0.3066527,-0.1025142,0.9149299645309963
0.8357972,-0.2785928,-0.08661206,0.8852528207676741
0.8105607,-0.2220793,-0.09090819,0.8453355327218041
0.7982664,-0.1874085,-0.1232013,0.829174138262223
0.818603,-0.2060295,-0.1358065,0.8549868021914139
0.9090867,-0.2273168,-0.1712918,0.952602979433914
0.9759477,-0.2584232,-0.1986875,1.028947610954892
0.9710149,-0.2663811,-0.1806429,1.0229666093180316
0.952482,-0.2189761,-0.1666786,0.9914404916045996
0.9478635,-0.1564808,-0.1205862,0.9682316288116857
0.9403461,-0.1080207,-0.0959304,0.9513789471382368
0.9501587,-0.1048647,-0.1281867,0.9644843132724711
1.000392,-0.124502,-0.1445327,1.0184176957600892
1.032301,-0.1285381,-0.1606187,1.0525995271433004
1.054405,-0.1531076,-0.1582667,1.0771537446119983
1.086984,-0.2234664,-0.1484677,1.1196044418133797
1.127979,-0.3162885,-0.1919,1.1870975737795315
1.26149,-0.359591,-0.2233399,1.3306176830002712
1.42427,-0.3154962,-0.2101165,1.4738493236035664
1.504542,-0.2897662,-0.2095436,1.5464538792758744
1.538259,-0.3434176,-0.2449696,1.5950506274080833
1.509668,-0.420176,-0.2912202,1.5938803424623944
1.344533,-0.542279,-0.3084941,1.4822294396161513
1.07245,-0.6866612,-0.2901446,1.3060767569306941
0.9084925,-0.7172958,-0.2597339,1.1863109145848318
0.9437204,-0.6662127,-0.2283466,1.1775354452198075
0.9992306,-0.6182819,-0.1795807,1.1886898366085494
1.015781,-0.5031119,-0.130723,1.1410614035237587
0.9877085,-0.3322313,-0.1136384,1.0482649491547926
0.9190014,-0.1951903,-0.1068503,0.945557937424323
0.9271757,-0.1166442,-0.09855079,0.9396663803040706
0.9376192,-0.1464571,-0.09399164,0.9536319388207064
0.8740873,-0.2453105,-0.09327217,0.9126365909429935
0.8083417,-0.3313725,-0.07955852,0.8772420394735596
0.7167761,-0.4209345,-0.01759983,0.8314226270901514
0.6463785,-0.4563463,0.05378207,0.7930634412450399
0.638094,-0.4048234,0.05977958,0.758036632497755
0.5963675,-0.30156,0.01357248,0.6684136749570586
0.5399168,-0.1744411,0.005727107,0.5674263371099718
0.5736322,-0.129134,0.0789522,0.5932646464417715
0.6891539,-0.1478217,0.1530257,0.7212497609958634
0.7850014,-0.1846964,0.1570421,0.8215851625652267
0.8308077,-0.2849089,0.1544647,0.8917812844103592
0.8729687,-0.3377798,0.200711,0.9573162747957071
0.9637402,-0.3185922,0.2651908,1.049105487261181
1.060379,-0.3377849,0.3385848,1.1632462890979065
1.050426,-0.3421976,0.3530804,1.1598102205903862
1.049022,-0.2923734,0.3275258,1.1371906221813473
1.15964,-0.2435225,0.3826017,1.245171553822661
1.215379,-0.2092696,0.3825464,1.2912325999904588
1.175593,-0.2310553,0.3100612,1.2375554133260176
1.172111,-0.3656699,0.2607844,1.2552159875377502
1.226027,-0.5694991,0.1435397,1.3594392502447104
1.230609,-0.6687167,0.08155297,1.4029367137029778
1.089171,-0.5540792,0.06016236,1.2234854869079606
0.8744084,-0.4147307,-0.03301688,0.9683396707137348
0.8177522,-0.3913128,-0.0547308,0.9082069304499498
0.9673596,-0.41491,-0.1017531,1.057491653476173
1.119695,-0.4918359,-0.1743667,1.235323112235297
1.175729,-0.5357721,-0.1516341,1.300916340454766
1.115853,-0.485169,-0.1357932,1.2243188593402619
0.9850724,-0.4315362,-0.08704025,1.0789657688139427
0.9160904,-0.3590452,-0.04645807,0.985034734861327
0.8970421,-0.2966878,-0.07951624,0.9481724591365157
0.9189608,-0.2639857,-0.08981234,0.9603351801102601
0.9563564,-0.2282285,-0.1202694,0.9905405295138459
0.9318346,-0.2220535,-0.1555917,0.9704804252164491
0.8827156,-0.2156032,-0.1437679,0.9199678143304852
0.7647026,-0.2175363,-0.1376291,0.8068667036327996
0.634988,-0.2282931,-0.1239544,0.686070107883276
0.6166641,-0.2169031,-0.08915381,0.6597499290306412
0.6067142,-0.2023693,-0.07702033,0.6441953005862732
0.6378631,-0.164212,-0.1134464,0.6683599336873584
0.7758321,-0.1384112,-0.1622014,0.8046007717109213
0.8892315,-0.1413268,-0.1902659,0.9202755227068141
0.9165103,-0.1464388,-0.2022647,0.9499191865720052
0.9310218,-0.16337,-0.1999588,0.966165032834805
1.003411,-0.1486307,-0.1870287,1.0314574419369809
1.079537,-0.1304023,-0.1558912,1.0985021440360188
1.141935,-0.1505914,-0.1451631,1.1609330900532424
1.208864,-0.1804571,-0.1937275,1.2375165775425636
1.25608,-0.2486224,-0.2524458,1.3050972937369076
1.352952,-0.338591,-0.2847276,1.4234439875831995
1.497441,-0.4098979,-0.2955907,1.5804175710336492
1.599366,-0.4759693,-0.2931126,1.694235335712619
1.531487,-0.519619,-0.2863545,1.6423931429472816
1.256175,-0.5540396,-0.285467,1.402293448990674
1.016145,-0.5976606,-0.2848456,1.2128008367645202
0.9888457,-0.5877291,-0.2760103,1.182972104109556
1.062266,-0.5208278,-0.2592302,1.2111444788302013
1.010832,-0.4725023,-0.2154495,1.1364234434309861
0.9297183,-0.4465866,-0.1767034,1.0464414939336122
0.9466157,-0.4052261,-0.1422307,1.039480181451378
0.8730506,-0.3464435,-0.05869381,0.9411086080707828
0.865103,-0.3221684,-0.02411739,0.9234594344463497
0.9261381,-0.3379761,-0.07138149,0.9884608953101989
0.8610121,-0.2959349,-0.08498494,0.9144078638174672
0.873793,-0.2560399,-0.07640679,0.9137333499435786
0.8522511,-0.308533,-0.05638119,0.9081318120878853
0.7781512,-0.3514621,-0.008085527,0.8538795427604047
0.8086805,-0.3593391,0.003278806,0.8849290878018677
0.7594992,-0.3211148,0.0259899,0.8250025602879606
0.704552,-0.2473086,0.09662466,0.7529219011677609
0.7184451,-0.2337141,0.1095085,0.7633988170183852
0.7274576,-0.2130131,0.09362523,0.7637635918672238
0.7527046,-0.182599,0.1146443,0.7829750476130449
0.7623717,-0.2196193,0.1282668,0.8036763141188248
0.7727237,-0.262147,0.1571832,0.8309810614646582
0.7995071,-0.2910119,0.2083389,0.8759592605511001
0.8767109,-0.2916576,0.239618,0.9545171259545687
0.9562353,-0.2648315,0.2598836,1.025700325586036
0.9580885,-0.2611672,0.2637379,1.0274724132960944
0.9878021,-0.2440217,0.2656019,1.0515911506469187
1.063427,-0.2234857,0.2738819,1.1206400571017885
1.138305,-0.2484149,0.2456341,1.190707498359618
1.225781,-0.3431723,0.1894168,1.2869285184385846
1.300077,-0.5277495,0.1315978,1.4092685058724934
1.301676,-0.6384467,0.09731435,1.4530810990556626
1.225776,-0.5805609,0.09727217,1.3597939681588969
1.117016,-0.5137733,0.05276225,1.2306386972113108
0.961729,-0.4615272,-0.04413951,1.067650842796408
0.8934159,-0.4264867,-0.0909103,0.9941567071120077
0.965493,-0.4910693,-0.09599414,1.087446856340957
0.9867053,-0.5358987,-0.1192231,1.1291540697723184
1.004901,-0.5104644,-0.129452,1.1345297456533963
1.018837,-0.4888039,-0.1241279,1.1368226866062359
0.9415789,-0.4235076,-0.1297665,1.0405617985997853
0.9085198,-0.3519399,-0.1207158,0.9817546661838129
0.8944841,-0.335937,-0.1063309,0.9613853199506532
0.8604713,-0.3068228,-0.1026247,0.9192839157592284
0.857013,-0.2746691,-0.1004435,0.9055403322635939
0.8477629,-0.2779068,-0.1223491,0.9005017636703773
0.8461175,-0.2626237,-0.1535375,0.8991439236930815
0.8152784,-0.2353963,-0.1576917,0.8631088922083585
0.7652259,-0.2379522,-0.1338116,0.8124638280011056
0.7663176,-0.2327358,-0.1130231,0.808815700765638
0.7813233,-0.2167495,-0.1357433,0.8221147659347994
0.7964938,-0.2014046,-0.1684353,0.8386516777695553
0.8138866,-0.1778307,-0.1808628,0.8524942861661244
0.8456438,-0.1911455,-0.1933377,0.8882733278051187
0.8866623,-0.2089348,-0.1980339,0.9322237984741326
0.9139808,-0.1939973,-0.2021607,0.9559627627687284
0.9774468,-0.1937757,-0.2132221,1.0190264631839252
1.063748,-0.1865671,-0.2176925,1.1017064558504954
1.11244,-0.1619731,-0.2162492,1.1447802213631446
1.118471,-0.1362843,-0.2036476,1.1449991848264565
1.107253,-0.1252302,-0.1829938,1.1292380350658935
1.117057,-0.1936526,-0.179366,1.1478195993673221
1.178782,-0.3012506,-0.2311222,1.2384249669871807
1.303946,-0.3442624,-0.3117093,1.3841800672875804
1.410428,-0.3378824,-0.3184334,1.484880968175335
1.426489,-0.3650118,-0.2519022,1.4938404197320005
1.410422,-0.4368959,-0.2182854,1.4925872709406207
1.345851,-0.4974597,-0.2722828,1.4604516392201865
1.172905,-0.5278457,-0.3626402,1.3363514270915156
1.031985,-0.5255086,-0.3868589,1.2209881806996208
1.022322,-0.5278052,-0.3239639,1.1952711865238992
1.01696,-0.5547842,-0.2402635,1.1830975021535166
1.00336,-0.5213051,-0.1870534,1.1460712330992215
1.030659,-0.4385525,-0.1545744,1.1306986842977265
1.008262,-0.3677579,-0.1270967,1.0807366491459887
0.9662257,-0.311402,-0.1302171,1.0234841484248303
0.9596268,-0.2797064,-0.1312133,1.008135008605539
0.9241561,-0.2554826,-0.09986666,0.9640068494826817
0.8682895,-0.2747558,-0.07298816,0.9136436268830839
0.8076609,-0.3160781,-0.03879016,0.8681740443028954
0.7645902,-0.3120093,-0.01902493,0.8260205355704148
0.7615434,-0.3112919,-0.03560113,0.8234794700212306
0.7392105,-0.2883732,-0.03395602,0.7941941054192799
0.6992549,-0.2464676,-0.01376599,0.741547837637229
0.6594741,-0.2330947,0.04095863,0.7006545775989598
0.6426306,-0.2152821,0.1169859,0.6877544412329011
0.678736,-0.2214041,0.112583,0.7227567122357357
0.7066109,-0.2389995,0.08335915,0.7505787586174968
0.7407717,-0.2787662,0.1090778,0.7989688806431512
0.7935917,-0.3543947,0.1219923,0.8776477146077861
0.7941556,-0.3545567,0.1477566,0.8821709490624875
0.799269,-0.3130042,0.2035344,0.8821727810140143
0.8601637,-0.2878125,0.2119641,0.9314753918610786
0.9310695,-0.2357895,0.2160303,0.9844573087029168
1.022553,-0.201572,0.2193554,1.065064646161049
1.108937,-0.1875508,0.1958061,1.1416026459967803
1.119472,-0.1582768,0.2100193,1.1499466120541117
1.106657,-0.1549294,0.2192636,1.1387578148659705
1.11861,-0.171071,0.2116884,1.1512452379209046
1.137527,-0.191127,0.2281531,1.1758193070780945
1.218579,-0.2871527,0.205923,1.2687772595248112
1.435033,-0.5388782,0.1278229,1.53819638515004
1.660756,-0.7985666,0.03704473,1.843147150444677
1.568463,-0.7139464,0.01275088,1.723356675033562
1.177733,-0.4146836,0.02670296,1.2488917308841152
0.7802279,-0.2943148,-0.03425531,0.8345958325444993
0.5461728,-0.2857831,-0.06255088,0.61958802465366
0.6719213,-0.3988607,-0.03489395,0.7821672961360521
0.8951695,-0.6225978,-0.0889673,1.094016286334157
1.014109,-0.7324051,-0.1695402,1.2623700621462195
1.207652,-0.7618119,-0.2062251,1.44267443172589
1.089918,-0.6393469,-0.1864586,1.2772832554987832
0.8564302,-0.4376761,-0.1350482,0.9712214331997054
0.9225998,-0.3382931,-0.1288451,0.9910770264019139
0.8847269,-0.2586442,-0.1540642,0.9345449628021597
0.8896282,-0.2869043,-0.1948477,0.9548392732753612
0.9375224,-0.3306683,-0.2101798,1.0161030082893614
0.8509018,-0.3216297,-0.1900501,0.9293000471727848
0.8672958,-0.3692955,-0.2122513,0.9662462343365587
0.7889909,-0.3526973,-0.2222555,0.892356169357477
0.7468565,-0.3332534,-0.2020736,0.8424287507087885
0.8066762,-0.3121848,-0.1946888,0.8866169239547145
0.7519087,-0.2637447,-0.1689012,0.8145278235120149
0.7825386,-0.2746142,-0.1524056,0.8432123612963462
0.7933359,-0.2431215,-0.1564026,0.8443646648681007
0.7838586,-0.2170272,-0.1673991,0.8303960314299496
0.7765848,-0.2333718,-0.2737153,0.8558425171025157
0.8015723,-0.2127999,-0.2823318,0.8760783040679299
0.8164868,-0.1729628,-0.2610554,0.8744808440596283
0.8664115,-0.1602513,-0.2404178,0.9133181729500295
0.895208,-0.1592397,-0.2211344,0.9357644298558533
0.9372572,-0.1305798,-0.2327016,0.9745009891028537
0.9937951,-0.1338744,-0.241396,1.0314179970193316
1.04728,-0.1760151,-0.2449739,1.0898572959379682
1.166119,-0.2602901,-0.2691928,1.2247649659795343
1.245938,-0.3460565,-0.3029199,1.3281103368516713
1.315691,-0.4038574,-0.3442935,1.4186901075139735
1.398445,-0.4507583,-0.3692486,1.514983825539352
1.307579,-0.4845813,-0.3606335,1.440360510036616
1.142458,-0.5879082,-0.3551195,1.3330252033144347
1.068261,-0.7043207,-0.3648795,1.3305586278288304
1.077697,-0.6627389,-0.353496,1.3136259343504946
1.098946,-0.6008411,-0.3236284,1.2936103275916477
1.060187,-0.6110234,-0.2822725,1.2557960959378756
1.008097,-0.5322315,-0.197765,1.1569965108963165
0.9582096,-0.4528067,-0.09562782,1.064116640718959
0.9421035,-0.4274241,-0.04942195,1.0357088853123075
1.02093,-0.338117,-0.09392206,1.079556633041381
1.09219,-0.290114,-0.1574963,1.140986508951657
1.074128,-0.295835,-0.1619402,1.1258303317929572
0.9964775,-0.3244647,-0.1173341,1.0545198151647743
0.8872653,-0.3923424,-0.04493187,0.9711802841715574
0.7985266,-0.3730898,-0.02287568,0.8816824975619411
0.7419386,-0.3035374,-0.02714515,0.8020877124961101
0.6762505,-0.2174765,0.02313358,0.7107361882767166
0.6324075,-0.1225411,0.02895902,0.6448210543126057
0.6343571,-0.1262164,0.05168434,0.6488534356467611
0.6545943,-0.1784452,0.1407967,0.692935853976701
0.7272084,-0.271569,0.1418551,0.7891163717650078
0.8119108,-0.353841,0.127786,0.8948362208994672
0.8038094,-0.3208891,0.1416762,0.8770128343836309
0.8165074,-0.3009711,0.1328772,0.8802978402619253
0.9572463,-0.3095385,0.2049273,1.0267082156733869
1.079448,-0.2710835,0.2827999,1.1483335892136308
1.088343,-0.2725946,0.2392904,1.1471957972073992
1.082418,-0.3184299,0.175489,1.1418505668689796
1.167893,-0.3588981,0.1308111,1.2287772172024594
1.288882,-0.4368192,0.05755644,1.3621088676013067
1.28959,-0.5239308,0.003650493,1.3919623476904046
1.103921,-0.5678438,-0.03499832,1.2418989644259562
0.868096,-0.5732959,-0.07073226,1.042718517519238
0.8249281,-0.5566558,-0.07766424,0.9982002724994758
0.9010325,-0.585146,-0.1469469,1.084365620439831
0.9500748,-0.5967643,-0.2255032,1.144386931312906
1.074968,-0.5437918,-0.2349724,1.227386553426833
1.109976,-0.5182563,-0.2581032,1.2518999859876707
0.989482,-0.4562034,-0.222289,1.1120290329018214
0.9432715,-0.3828688,-0.1697368,1.0320659969207058
0.9042277,-0.3734368,-0.1905833,0.9966969305061695
0.888048,-0.3527231,-0.2010822,0.9764614107758943
0.917252,-0.3387426,-0.240258,1.0068871273001556
0.8513323,-0.3196158,-0.2546508,0.9443346729701129
0.7846498,-0.2921072,-0.2041771,0.8617947627459163
0.7232857,-0.2853045,-0.178432,0.7977335646497143
0.6754898,-0.2694131,-0.1632161,0.7453250188037833
0.7065636,-0.2625262,-0.1895777,0.7772334468283579
0.7061063,-0.2263329,-0.212872,0.7714448631665778
0.710779,-0.1743655,-0.1932618,0.7569413701010733
0.7323566,-0.1310288,-0.1985046,0.7700122156265835
0.742283,-0.07027482,-0.2009426,0.7722049798530132
0.82966,-0.09687353,-0.2181931,0.8633240557880169
0.9534373,-0.1516662,-0.2486622,0.9969344065496838
1.077529,-0.1131227,-0.2560142,1.1132873670791068
1.196028,-0.1128505,-0.2851033,1.2347072947889877
1.254637,-0.1923691,-0.3147199,1.3077341044187156
1.267535,-0.2962842,-0.3143108,1.3391118632852448
1.31771,-0.4357495,-0.3425888,1.4295469060984636
1.399478,-0.5240916,-0.4284743,1.5546063499918716
1.376203,-0.5399314,-0.47396,1.5524492569855415
1.243046,-0.5831325,-0.4078296,1.4323169528105189
1.073576,-0.6659054,-0.3021493,1.2989571313232975
0.9874647,-0.7397448,-0.2463233,1.2581669487774745
1.051914,-0.7140816,-0.2595654,1.2976169664934718
1.052018,-0.6127407,-0.2598177,1.244868778222741
0.992285,-0.5155842,-0.1814996,1.1328718785965162
0.9819076,-0.3786019,-0.079511,1.0553690978716261
0.949162,-0.2942723,-0.04338083,0.9946791368088399
1.026089,-0.2829569,-0.1007184,1.0691433202696308
1.143952,-0.2449288,-0.1561588,1.1802550004939103
1.091049,-0.2793237,-0.1478595,1.1359014400567242
0.9763728,-0.3494009,-0.1234247,1.0443268119083893
0.857952,-0.3655509,-0.07997169,0.9360045758415213
0.7451921,-0.3745142,-0.01767517,0.8341969572820193
0.6438481,-0.339967,0.02630514,0.7285670163773746
0.5530087,-0.2816396,0.05217785,0.6227856891375014
0.5903078,-0.2292132,0.06193166,0.6362684341576562
0.651696,-0.1872955,0.06416009,0.6811048361926805
0.6372166,-0.1952276,0.06132053,0.6692675238772616
0.6351008,-0.2080527,0.06701356,0.6716619457448841
0.6092876,-0.2306727,0.119183,0.6623034512427443
0.6539213,-0.2606414,0.1829015,0.7273238375647398
0.8190589,-0.227068,0.2037675,0.8740357843643818
0.9712978,-0.1880282,0.2015978,1.0096611774476227
1.110656,-0.2015458,0.2121086,1.1485501808922414
1.168451,-0.2224991,0.2238966,1.2103360179691298
1.177537,-0.2670974,0.215933,1.2266056692942358
1.265415,-0.4084664,0.1721221,1.3408004845846266
1.394977,-0.6063571,0.08207295,1.5232746739741694
1.477406,-0.6852759,0.01790353,1.6286964371371577
1.270585,-0.5588653,0.008545181,1.3880885007402852
0.9461989,-0.4212837,-0.001903904,1.0357489749439006
0.9149475,-0.4501734,-0.0459736,1.0207343384646026
0.9481079,-0.5445264,-0.1648713,1.105712501468198
0.9717115,-0.6458679,-0.2652721,1.1965524938426522
1.095434,-0.7231207,-0.2567086,1.3374522423019262
1.071781,-0.6945389,-0.2369176,1.2989336952916304
0.9918939,-0.6444693,-0.2163774,1.2025029591358434
0.9846238,-0.5612383,-0.1798256,1.147523290974388
0.9145105,-0.4239867,-0.1707556,1.0223754942869572
0.8770836,-0.3640716,-0.1737716,0.9654120054578148
0.8584714,-0.3389517,-0.1858843,0.9414958165267332
0.7846623,-0.3084407,-0.2043253,0.8675133536020468
0.7714565,-0.2930452,-0.2221057,0.8546060862220559
0.7813253,-0.2634565,-0.2296471,0.8559301036596096
0.7655865,-0.242888,-0.2241506,0.8338829420288018
0.7309707,-0.1980416,-0.2191429,0.7883921931434
0.6833484,-0.1568937,-0.189334,0.7262424061139985
0.6923829,-0.1676798,-0.1714475,0.7327379073015808
0.7131302,-0.1484593,-0.206114,0.7570190399881168
0.724282,-0.1134494,-0.2286737,0.7679497659066314
0.7550164,-0.1091867,-0.2179288,0.7933879641104281
0.7990561,-0.1229843,-0.2143732,0.8364040039789025
0.9214918,-0.1488232,-0.2320433,0.9618417621419699
1.085051,-0.1535047,-0.2638173,1.1271641110780541
1.192382,-0.1567513,-0.2964211,1.238632823923579
1.255742,-0.1941936,-0.2972683,1.3049779948450664
1.305254,-0.2446756,-0.2760849,1.3563838047394143
1.331704,-0.3045442,-0.2969644,1.3979880429520848
1.322055,-0.4149866,-0.3572952,1.4309797906146684
1.316964,-0.5608488,-0.4123653,1.4896277032874792
1.290094,-0.607183,-0.4031052,1.4817245110316695
1.136418,-0.6202442,-0.3411939,1.338865943907324
0.9683292,-0.7325861,-0.3315713,1.2586831851063793
0.9940616,-0.7224083,-0.3386482,1.274643016639047
1.057462,-0.604045,-0.3071851,1.2559693185468384
0.9972576,-0.5534467,-0.2321665,1.163927512442635
1.004085,-0.4425193,-0.1404385,1.1062246563785043
1.044937,-0.3922146,-0.1694154,1.128905312317787
1.041181,-0.3996844,-0.2234632,1.1374274904883388
1.097122,-0.3311512,-0.1987616,1.163118211438545
1.050142,-0.3806651,-0.2063857,1.1359133750803798
0.9291733,-0.400814,-0.172274,1.0264955991648919
0.889935,-0.3695602,-0.0988521,0.9686747562125536
0.8215719,-0.4271562,-0.06514395,0.9282707257528121
0.790049,-0.3743321,-0.01405216,0.8743565672493548
0.8042683,-0.3269929,-0.009055568,0.8682475789468709
0.7686817,-0.2803726,-0.03061099,0.8187901950160554
0.7402097,-0.1747859,-0.0006565545,0.7605661982212406
0.7065624,-0.2098748,0.02472465,0.7374884169167828
0.6675256,-0.2233738,0.05060135,0.7057242930519132
0.6342727,-0.2131029,0.07120912,0.6728933368111728
0.6182234,-0.2762197,0.08545717,0.6824957310343112
0.6443496,-0.294331,0.1244211,0.7192341445637644
0.6909858,-0.3150804,0.1343906,0.7712313969452748
0.7695818,-0.3132856,0.1269533,0.8405481273784922
0.8208182,-0.2765962,0.1369654,0.8769307248026152
0.8298897,-0.2571286,0.1440915,0.8806783700513485
0.8872531,-0.2486006,0.1604416,0.9352870301626822
0.9962781,-0.2881614,0.1538543,1.0484646825802288
1.09851,-0.3361441,0.1115063,1.1541883429512274
1.172054,-0.3814352,0.07984975,1.2351434626350504
1.298216,-0.4604393,0.05954489,1.378736641119544
1.454375,-0.5681105,0.03038714,1.5616912496113402
1.473405,-0.635355,0.004848895,1.604562800837886
1.306981,-0.5783118,0.05768173,1.4303744455058027
1.067888,-0.5439253,0.1238442,1.204814051377942
0.9372443,-0.6251282,0.05429706,1.127900844508228
0.891038,-0.6764599,-0.04187771,1.119509024683077
0.8122761,-0.6717332,-0.08605759,1.0575556077152908
0.7997661,-0.6573777,-0.13384,1.0438794953281245
0.8697511,-0.6459193,-0.1510646,1.0938460730088397
0.9018856,-0.6564154,-0.1624521,1.1272397693653866
0.8779072,-0.6549292,-0.1585792,1.106707129956756
0.8276953,-0.6216142,-0.1270838,1.0428969342682766
0.7874517,-0.5558266,-0.1554402,0.9763119608385887
0.7855419,-0.464271,-0.2013518,0.9344336174709523
0.8238692,-0.3956342,-0.2399748,0.9449205170559691
0.8688905,-0.3650691,-0.2900526,0.9860916080830523
0.8921213,-0.346171,-0.3128091,1.006759309963161
0.9100846,-0.3169594,-0.3426128,1.0227906780614302
0.8997214,-0.2890851,-0.3396213,1.0041969030392695
0.8486025,-0.2710741,-0.2934166,0.9379235959568456
0.7910915,-0.235817,-0.2806357,0.8718897952010564
0.7720376,-0.201439,-0.2577717,0.8384902956240162
0.8488893,-0.1877507,-0.2579649,0.9068678286481388
0.9321151,-0.179604,-0.2857508,0.9913373170443298
0.9199716,-0.1711181,-0.2550425,0.9698844393846208
0.9077755,-0.1517887,-0.2186998,0.946005164028178
0.917997,-0.1395405,-0.1798996,0.945808600737702
0.9007403,-0.1357417,-0.1572603,0.9243861201462678
0.9123709,-0.1259398,-0.1816807,0.9387701364782222
0.9478196,-0.1141558,-0.1802265,0.971532362878381
0.969675,-0.05866037,-0.2060425,0.9930579824158239
1.014455,0.01500929,-0.2369955,1.041878636325534
1.061896,0.01318273,-0.2111118,1.0827580945370452
1.07436,-0.06338557,-0.204444,1.0954745497820682
1.085412,-0.1556239,-0.1802465,1.1112276133886614
1.14888,-0.2209541,-0.1597865,1.1807953651200787
1.292284,-0.2655965,-0.1940157,1.33348473156416
1.42131,-0.2982091,-0.2124052,1.4677079928956747
1.41632,-0.3058146,-0.2164532,1.4650381905477414
1.328536,-0.3469367,-0.182174,1.3851210573010901
1.258147,-0.4459995,-0.1227338,1.3404898407939128
1.231263,-0.5052891,-0.1240246,1.3366778786053766
1.217967,-0.5315909,-0.1592543,1.338429837578459
1.163784,-0.6130629,-0.1922436,1.3293595900859068
1.105517,-0.6681425,-0.2024392,1.3075029129190843
1.093877,-0.6320669,-0.178797,1.275948206007442
1.089073,-0.5834049,-0.1573983,1.2454780212897776
1.080473,-0.5274199,-0.1351282,1.2098980473908743
1.05045,-0.483899,-0.09911444,1.1607872832338895
0.9973855,-0.475604,-0.08593775,1.1083150713137995
0.9755407,-0.4047963,-0.1077503,1.0616731271913544
0.9497842,-0.3114173,-0.11988,1.0066985525513237
0.9030822,-0.2719753,-0.1248042,0.9513695980556505
0.8416027,-0.2479515,-0.1305986,0.8870349741253161
0.733377,-0.26029,-0.07511834,0.7818154982048868
0.6272024,-0.2598532,0.02826387,0.6794890598555484
0.5580834,-0.2209316,0.09746717,0.6080852756496649
0.5427445,-0.2032056,0.1128184,0.5904168862169933
0.5790225,-0.1678054,0.107247,0.6123133403612974
0.6228574,-0.1613603,0.1152544,0.6536605111754954
0.6914247,-0.221578,0.1274013,0.7371539982227459
0.7489331,-0.2793499,0.1314444,0.8100708519610985
0.7837713,-0.3275611,0.1630938,0.8649816833525089
0.8615341,-0.3388166,0.2239911,0.95247556754889
0.956148,-0.3051096,0.2603232,1.0368601807256368
1.077082,-0.2740828,0.2678463,1.1432272986609138
1.187461,-0.2848317,0.267602,1.2501214158032372
1.191437,-0.3184401,0.2477624,1.2579000075962994
1.220826,-0.342909,0.2172033,1.286537981595526
1.342838,-0.4466964,0.1629294,1.4245341545225654
1.423352,-0.6221754,0.08112818,1.5555111461700533
1.381891,-0.6867098,0.04134941,1.5436653973592813
1.111429,-0.5541865,0.02534662,1.2421914304843171
0.7415612,-0.4273836,-0.04767185,0.8572294676321052
0.6799179,-0.5139366,-0.1549042,0.8662646770690872
0.8990146,-0.6188809,-0.243533,1.118279545322622
1.055319,-0.6405826,-0.2851834,1.2670334765977258
1.087168,-0.6621994,-0.2655326,1.3003652822369258
1.02817,-0.5823327,-0.2149628,1.2010220346742728
0.9105966,-0.4660994,-0.151545,1.0341183228416948
0.8556543,-0.3663526,-0.1160616,0.9379918995544737
0.8333343,-0.2691721,-0.155892,0.8894953572891204
0.8057958,-0.276408,-0.1917559,0.8732001940829205
0.8152122,-0.2803758,-0.2007792,0.8851518555632814
0.7984807,-0.2642154,-0.2159899,0.868350645057433
0.7534462,-0.2759284,-0.2013545,0.8272613207996914
0.6906101,-0.2336329,-0.2043805,0.7571644675793167
0.6456414,-0.2136649,-0.2138297,0.7129015692843298
0.670275,-0.2115239,-0.194746,0.7293400718541454
0.6558794,-0.1808327,-0.2024203,0.7098254930514541
0.6558723,-0.1644425,-0.2024794,0.7058383080691356
0.7507957,-0.1481976,-0.2087507,0.7932424386874041
0.8382225,-0.1400067,-0.2396341,0.8829741431287498
0.9009663,-0.1365904,-0.2439523,0.9433503780585133
1.018921,-0.1483654,-0.2519193,1.060035673866993
1.287374,-0.1558808,-0.282742,1.3272428859288115
1.456716,-0.1505071,-0.3171284,1.498413932761228
1.326976,-0.2073384,-0.2999565,1.3761643864679867
1.287183,-0.3280837,-0.270431,1.3555854511817724
1.388955,-0.4782104,-0.3319403,1.5060098078887967
1.406395,-0.5394496,-0.3907383,1.5561584707387774
1.424335,-0.5117948,-0.3861319,1.561973736568464
1.309776,-0.6019211,-0.3408863,1.4812243754168035
1.0607,-0.7199282,-0.2577832,1.3076059350421594
0.9733569,-0.687583,-0.2220377,1.2122271968933462
0.9880583,-0.6125824,-0.2106922,1.1814853380933212
1.000325,-0.5565175,-0.1507226,1.1545904622774301
1.037311,-0.4604404,-0.09099488,1.1385515099719357
1.050107,-0.3764269,-0.06990591,1.1177248135142828
1.077576,-0.334389,-0.08844373,1.131728029375129
1.106324,-0.2841779,-0.1290331,1.1495039855172404
1.039508,-0.266625,-0.1634572,1.0855339833099837
0.9072987,-0.2790146,-0.1624914,0.9630386976174997
0.781806,-0.3201766,-0.1228602,0.8537144168676081
0.6940262,-0.408739,-0.06249578,0.8078648766503272
0.63021,-0.4253653,0.01698883,0.7605188379579161
0.568469,-0.3771257,0.05247655,0.684203614329384
0.544553,-0.3296691,0.0326122,0.637403514967285
0.5749717,-0.2572321,0.04132631,0.6312437508360111
0.615409,-0.2162236,0.05786137,0.6548502276217341
0.6581379,-0.2175934,0.06442457,0.6961629897945272
0.6962823,-0.2169076,0.08349005,0.7340494102443326
0.6985715,-0.2222723,0.09521269,0.7392378320246984
0.7491993,-0.2417562,0.1502555,0.8014501647882917
0.8776342,-0.2579563,0.2217023,0.9412412823206492
0.9744649,-0.2452243,0.2099882,1.0265533803859106
1.070794,-0.230836,0.1946358,1.1125502882897653
1.152116,-0.2379015,0.215699,1.1960328004529182
1.128397,-0.2455818,0.1924541,1.1707385663362466
1.146657,-0.2934908,0.164797,1.195038566968715
1.251593,-0.4468186,0.1528533,1.3377204604385216
1.302788,-0.6274314,0.09015325,1.448811355261796
1.271248,-0.6638278,0.02751753,1.434397448413145
1.142105,-0.5617276,0.02848523,1.273088031502501
0.9557415,-0.4819332,0.01460337,1.070474045691836
0.8258138,-0.4848532,-0.06310361,0.9597047063632188
0.8400814,-0.5576379,-0.1204234,1.0154794835002476
0.9402411,-0.6731276,-0.1420347,1.1650441828596287
0.9605331,-0.7289318,-0.1768043,1.2186981438179596
0.9497642,-0.7021081,-0.1800504,1.1947493319635756
0.9438814,-0.6476384,-0.1671227,1.1568394837987723
0.9075909,-0.5390238,-0.1781894,1.0705229381015664
0.8983859,-0.4079039,-0.1746824,1.0019963861330936
0.8553178,-0.3193431,-0.1771796,0.9300221315488196
0.7922105,-0.2516833,-0.1963109,0.8540959719305261
0.7490705,-0.2176736,-0.214222,0.8089372505894447
0.7206851,-0.2290523,-0.2280005,0.7898330187435506
0.7403597,-0.2606176,-0.2244073,0.8163410164307193
0.7025412,-0.2999838,-0.216456,0.7939821269373007
0.6495942,-0.3040493,-0.2012522,0.7449302313028852
0.6704879,-0.26263,-0.2022258,0.7479463985688078
0.7109711,-0.2101715,-0.2376449,0.7785416256973482
0.7886871,-0.1561763,-0.2561484,0.8438189267909674
0.8639938,-0.1229275,-0.2437151,0.9060869200373107
0.9193427,-0.1205967,-0.2233013,0.9537284910685377
0.991296,-0.1321808,-0.2262384,1.0253405956750177
1.12057,-0.1480447,-0.2493102,1.1574756731448528
1.273454,-0.151736,-0.252059,1.3069975682047004
1.277834,-0.1622277,-0.2193808,1.3066390066165674
1.249842,-0.2003494,-0.1776599,1.2782049706961596
1.311715,-0.263884,-0.1924744,1.3517682498625125
1.312469,-0.354374,-0.2197735,1.3771188035675246
1.311167,-0.4277019,-0.2178121,1.3962556814777944
1.316961,-0.5074097,-0.2499545,1.433292758387253
1.197133,-0.6010039,-0.2525377,1.3631244981385597
1.062777,-0.6377328,-0.2263831,1.25993943659624
1.037912,-0.6938587,-0.2385314,1.2710619355860082
1.055624,-0.7306944,-0.2084604,1.3006583232869113
0.990612,-0.6884414,-0.1445164,1.2149685945105413
0.8862561,-0.6897448,-0.08668854,1.1263714604346036
0.8657448,-0.6171176,-0.06252337,1.0650151936723518
0.9324353,-0.469932,-0.1110164,1.0500458629883982
1.041675,-0.4372743,-0.1513553,1.1398263226928826
1.055951,-0.431722,-0.1953878,1.1574077898795396
0.9816655,-0.4123156,-0.2297684,1.0892496617085405
0.9117582,-0.4063042,-0.1729644,1.013066040232442
0.773833,-0.4023453,-0.1030714,0.8782499449581822
0.7053875,-0.4008525,-0.04352212,0.8124951857345336
0.7749389,-0.3394538,-0.04546006,0.8472460080300489
0.8032206,-0.2254028,-0.1006526,0.840297983098234
0.7915039,-0.1047615,-0.06631477,0.8011560673911251
0.7462964,-0.04741099,-0.02853396,0.74834504441402
0.6553199,-0.05351419,0.03289009,0.6583233991645551
0.5971217,-0.06707903,0.1624402,0.6224473788623991
0.5997533,-0.1503459,0.2008925,0.6501274544763895
0.6493924,-0.2575172,0.2160142,0.7312234488001872
0.7566414,-0.2893413,0.241256,0.845239051165793
0.9205975,-0.2609117,0.2347732,0.9852375995877238
1.034365,-0.2143601,0.2510023,1.0857547422426024
1.062764,-0.1783653,0.2710149,1.1111843123272125
1.095342,-0.1605837,0.3324852,1.1559012197799299
1.130591,-0.1848875,0.3737464,1.2050335134137182
1.123297,-0.2473553,0.3301309,1.1966483216809773
1.138765,-0.4548696,0.2699086,1.2556045279398764
1.276384,-0.7834466,0.1522795,1.5053683059729304
1.39845,-0.8445226,0.0144324,1.6337347148728032
1.288343,-0.6208499,-0.06897398,1.4317959679703147
1.021775,-0.440067,-0.08179019,1.1155145674953044
0.7878007,-0.4064644,-0.05920641,0.8884529533818536
0.7271583,-0.5345135,-0.1238424,0.9109340343729068
0.8966875,-0.7042331,-0.2089144,1.1591539838689335
1.090693,-0.7756221,-0.2609217,1.363554544485955
1.121481,-0.779251,-0.3023044,1.3986921407591308
1.049817,-0.6729728,-0.2424883,1.2703577050050627
0.9153411,-0.5072601,-0.1526967,1.057581401402327
0.8008997,-0.4472698,-0.1109274,0.9240105473006734
0.8199741,-0.3487387,-0.1453399,0.9028288276747205
0.8929241,-0.1663387,-0.2715575,0.948011332888352
0.9313723,-0.1638242,-0.3220339,0.9989987800103362
0.9059559,-0.2513283,-0.2895573,0.9837506986574343
0.804333,-0.2627781,-0.2367245,0.8786594298298174
0.6664502,-0.2844583,-0.1370678,0.7374686266654128
0.5875324,-0.2775197,-0.08739144,0.6556285295219569
0.6233967,-0.263614,-0.1119604,0.6860400263359638
0.6870923,-0.2761322,-0.1691993,0.7595875352562205
0.79541,-0.2378759,-0.2253249,0.8602518947731647
0.9339889,-0.2022406,-0.2416186,0.9857058757446513
0.9421587,-0.1703258,-0.2344455,0.9857172954765377
0.9276437,-0.1445401,-0.2071015,0.9614081890435248
0.9760232,-0.1560051,-0.1920285,1.0068931537042547
1.00532,-0.1282968,-0.2133489,1.0356863059930117
1.089805,-0.1037289,-0.2497817,1.122864871823453
1.175459,-0.1366551,-0.259498,1.2114939905096558
1.193753,-0.2199799,-0.2470313,1.2387339684503287
1.281662,-0.3749983,-0.2736486,1.3631451733138515
1.378078,-0.5340111,-0.3146345,1.5110465570582066
1.355546,-0.6713133,-0.3538838,1.5535122300050712
1.256443,-0.8205948,-0.3549427,1.5420794915695268
1.125492,-0.8788647,-0.2988182,1.4589131981106107
1.036028,-0.7717595,-0.2719689,1.3202021910266093
1.026756,-0.6283411,-0.2639496,1.2323594495216768
1.068924,-0.538265,-0.2846351,1.2301808274205097
1.111595,-0.4791263,-0.3015483,1.2474521364002629
1.055648,-0.4487642,-0.2004306,1.1644545643871211
0.9610735,-0.4268354,-0.06878986,1.053841912211803
0.9466787,-0.4270745,-0.02911759,1.038961512102998
0.9566772,-0.4035769,-0.08075713,1.0414544124729066
0.9413014,-0.3145922,-0.1237732,1.0001681773487097
0.8845079,-0.2858248,-0.1098846,0.9360153133227095
0.8123684,-0.3199146,-0.09186489,0.8779105459136666
0.7839437,-0.3605411,-0.03484496,0.8635807899648427
0.7133491,-0.3828336,0.01829838,0.8097921551054903
0.5923758,-0.314853,0.02103554,0.6711810441138304
0.5622893,-0.2161393,0.05584012,0.6049822913942146
0.6017516,-0.1623424,0.1063993,0.6322822581575496
0.6355232,-0.1714084,0.1309169,0.671125779593073
0.7010117,-0.2221129,0.1121822,0.7438658413182716
0.7766329,-0.2722974,0.1030316,0.8294094561841756
0.8369199,-0.3080736,0.1923324,0.9123245114117728
0.9435661,-0.2818353,0.2663845,1.020151372706791
1.037624,-0.2637732,0.2383427,1.0968350418625081
1.079462,-0.298257,0.2129941,1.139983304319765
1.13855,-0.3223817,0.2292254,1.2053092329357018
1.186602,-0.3872368,0.2239136,1.2681143268424973
1.278997,-0.4947935,0.1921783,1.3847694510791821
1.38532,-0.59268,0.130801,1.5124450358280794
1.30057,-0.5996525,0.05065385,1.4330496356288824
1.078981,-0.479685,0.06232219,1.1824473573704648
0.8752003,-0.4176432,0.081306,0.9731454532917112
0.8359695,-0.4691238,-0.01193943,0.9586786190613698
0.9415774,-0.5223758,-0.1121202,1.0825966080976053
0.9671381,-0.562094,-0.2187485,1.1398055428711777
1.01681,-0.5926442,-0.2709808,1.2077087057160265
1.064029,-0.5957883,-0.191919,1.2344854449603242
0.9583077,-0.5469891,-0.1436624,1.1127396858977665
0.926738,-0.473575,-0.1424861,1.0504374755130408
0.9230562,-0.4090442,-0.1327791,1.018322245317704
0.8816851,-0.3572787,-0.1396634,0.9615209567842294
0.891149,-0.3416664,-0.1489826,0.9659597735893146
0.8211607,-0.3350619,-0.1739578,0.9037879664152096
0.7533428,-0.3346668,-0.1850975,0.8448599445117101
0.7050432,-0.3375984,-0.1767199,0.8014290465192848
0.6494598,-0.301748,-0.1740091,0.7369728992322919
0.7178513,-0.2481797,-0.1682273,0.777948633824284
0.7863116,-0.1991819,-0.2021266,0.8359512689204617
0.8095079,-0.1845457,-0.2517109,0.8675935296725708
0.8028691,-0.1845675,-0.280796,0.870350703686198
0.7602827,-0.1560495,-0.3069909,0.8346404274011354
0.7750263,-0.1482458,-0.263235,0.8318264531345044
0.7839737,-0.1483201,-0.1966197,0.8217499137716961
0.8627796,-0.14331,-0.255865,0.9112591796526167
1.047041,-0.1658215,-0.3329762,1.111154703589779
1.171316,-0.1789674,-0.333462,1.2309376131887269
1.301956,-0.1972559,-0.3715844,1.3682376556520324
1.394238,-0.2679879,-0.3940007,1.473415646309927
1.365023,-0.3828333,-0.3645671,1.4638163465818725
1.375801,-0.4942375,-0.3736862,1.5088871641304695
1.349645,-0.5722864,-0.3671426,1.5112402318575031
1.195888,-0.6717912,-0.3428586,1.4138612182726424
1.080074,-0.7411774,-0.3176871,1.3478979476403878
1.039152,-0.6893676,-0.2709409,1.2761165849273217
1.063835,-0.6169005,-0.2667708,1.2583631406942473
1.08877,-0.5459037,-0.2562975,1.244636240465438
0.9985792,-0.4598818,-0.1775767,1.1136360146056565
0.9243837,-0.4501255,-0.08148674,1.0313768852227432
0.9426263,-0.4497282,-0.0487484,1.0455506691832253
1.001712,-0.4108074,-0.1180783,1.0890969358921407
1.055674,-0.3873627,-0.1659171,1.136673189487506
0.9815023,-0.3531642,-0.1392653,1.0523623619509679
0.8305972,-0.344895,-0.09764303,0.90464270901855
0.7162834,-0.3711003,-0.02735991,0.8071715471018898
0.6617306,-0.3715849,0.01228685,0.75902153564131
0.6706484,-0.344971,0.006428032,0.7541986388604484
0.649902,-0.3046867,0.03624473,0.718693450097928
0.6423173,-0.2790328,0.06148633,0.7030016971046363
0.6929831,-0.2401327,0.0698065,0.7367239903363741
0.6930085,-0.2073459,0.09610881,0.7297191286232506
0.7011809,-0.2371078,0.1031905,0.7473439921722125
0.7590393,-0.2509749,0.1215592,0.8086443584661553
0.8264035,-0.2635646,0.1785905,0.8856091744531895
0.9256942,-0.2895242,0.2148855,0.9934333356645175
0.9676146,-0.2523851,0.2308467,1.0262877041726943
0.9405625,-0.2308792,0.2612514,1.003102843880352
0.9456966,-0.2515312,0.3036771,1.0246120167602029
0.9610398,-0.2736907,0.3023605,1.0439951955879778
1.039858,-0.3828451,0.1849323,1.1234211081964323
1.296239,-0.625084,0.02697481,1.4393377618028147
1.518082,-0.8611066,-0.05424057,1.7461442021555622
1.367417,-0.8577913,-0.08664458,1.616521713274544
1.022328,-0.6518853,-0.04622442,1.2133613150848457
0.8357685,-0.480126,0.03829422,0.9646224177125775
0.8108581,-0.4236838,-0.05954977,0.9168124103790825
0.9481506,-0.4909477,-0.2222113,1.0905948222247068
1.087574,-0.5761218,-0.2256725,1.2512640053831525
1.053753,-0.5933228,-0.2205847,1.229261949253669
1.018442,-0.5953788,-0.1963126,1.1959258588107375
0.9664245,-0.5257391,-0.1345122,1.1083643116854225
0.8996434,-0.4166823,-0.1467103,1.0022506165739884
0.878041,-0.3322102,-0.1375112,0.9488039548771284
0.7999744,-0.2464575,-0.1344409,0.8478058124089619
0.7711562,-0.2377039,-0.1626848,0.8231958290860626
0.777493,-0.2734718,-0.1748681,0.8425325173795074
0.7652248,-0.305843,-0.2165397,0.8520553836812077
0.797133,-0.3389256,-0.2312065,0.896519953858591
0.8011156,-0.3169609,-0.2311869,0.8920189456641491
0.8127737,-0.2866941,-0.2430002,0.8954572527968826
0.8178744,-0.255533,-0.2420814,0.8904038704376346
0.7953672,-0.2329089,-0.2555204,0.8672636354368896
0.7992697,-0.2453984,-0.2488077,0.872328894190683
0.778608,-0.2312429,-0.2382058,0.8464311546830314
0.7967301,-0.2269171,-0.2377417,0.8618534321085634
0.8678177,-0.237458,-0.2289346,0.9283883418453993
0.9185173,-0.2222989,-0.2406953,0.9752051367699978
0.9512842,-0.2015046,-0.2499009,1.0039901358138983
1.009025,-0.1910332,-0.2597184,1.0592822010332281
1.159339,-0.2801581,-0.2875194,1.2268752517240578
1.304244,-0.4489001,-0.3285423,1.4179223371557765
1.396325,-0.5067866,-0.3850431,1.5345404368807523
1.464395,-0.4456289,-0.4067127,1.5838096643478028
1.422148,-0.4419324,-0.3844159,1.5380457614279783
1.310485,-0.5576282,-0.3508082,1.4667605591395891
1.120949,-0.7009055,-0.3177592,1.359693380772257
0.9446816,-0.7581826,-0.3167866,1.2520454984787415
1.011363,-0.699443,-0.322508,1.2712541201829004
1.068197,-0.6247783,-0.2818706,1.2691902103720507
0.986216,-0.5887898,-0.2316326,1.1717291020636127
0.9836239,-0.5525593,-0.183801,1.1430750475225588
0.94122,-0.5135304,-0.1103644,1.0778630993366087
0.9075194,-0.4651947,-0.09620468,1.024330469496223
1.013489,-0.4339407,-0.1620909,1.1143329592632087
1.041204,-0.4042105,-0.1943733,1.1336987596708132
0.9960271,-0.3344317,-0.1950038,1.0686164082184684
0.9319677,-0.3206437,-0.1732244,1.0006911955984923
0.8269803,-0.3458678,-0.09882604,0.9018245604589684
0.7825827,-0.3341939,-0.03636715,0.8517298954102893
0.739625,-0.303681,-0.005305823,0.7995595300812237
0.6926801,-0.231198,0.01134711,0.7303334807095743
0.6966763,-0.178914,0.04076384,0.7204372124128762
0.6996909,-0.1894655,0.1019484,0.7320232287951114
0.7034954,-0.2180977,0.11749,0.7458393155810774
0.6870459,-0.2611137,0.09190192,0.7407147871712744
0.669552,-0.2987651,0.08663962,0.7382864548640687
0.6719634,-0.345908,0.1016567,0.7625753995890833
0.6637899,-0.3733356,0.1451128,0.7752768707327791
0.673429,-0.3282317,0.2150702,0.7794214892174388
0.7382761,-0.2826544,0.2805548,0.8388421218999496
0.8952166,-0.2751949,0.2817142,0.9780122107536338
1.047092,-0.2715443,0.2630714,1.1132585166188713
1.118864,-0.2800832,0.2635102,1.1831064512216474
1.270918,-0.3409852,0.1624699,1.325858189154877
1.459397,-0.4625897,0.0448177,1.5316126992122976
1.463947,-0.6154607,0.05587062,1.5890419183371705
1.363395,-0.6952966,0.08256535,1.5326775019609253
1.22465,-0.5753487,0.08162485,1.3555280761493702
1.003242,-0.4191757,0.08457106,1.0905755554861907
0.9292739,-0.4532452,0.003018146,1.0339198720159737
1.000486,-0.5172312,-0.1409218,1.1350591632882756
0.9530829,-0.5276426,-0.178916,1.1039858072743371
0.906854,-0.5836489,-0.1475021,1.0884792534961887
0.912491,-0.579583,-0.1606664,1.092872348931457
0.8718902,-0.5567725,-0.146708,1.0448499293565032
0.8723766,-0.5784194,-0.1276251,1.05446578923829
0.8816569,-0.5096609,-0.1561465,1.0302693103109837
0.8803537,-0.4248847,-0.1789872,0.9937736478502638
0.8958523,-0.3702139,-0.2060127,0.990984817103567
0.8671236,-0.3050506,-0.2099029,0.9428777405717721
0.8334451,-0.2723079,-0.1948847,0.8981995175964581
0.8196686,-0.2443033,-0.2097227,0.880638590519482
0.8113128,-0.2507037,-0.2185066,0.876827200126165
0.8135378,-0.2818284,-0.2278337,0.8906060823568913
0.803633,-0.315758,-0.2317953,0.8940124016785729
0.7862972,-0.3690449,-0.2215356,0.8964013872207082
0.7623698,-0.3608261,-0.2340912,0.875329581535258
0.7599108,-0.3354136,-0.2443813,0.8658457869686091
0.8072101,-0.3001122,-0.2689064,0.9022007149696846
0.8550001,-0.2258207,-0.321782,0.9410440027291498
0.8656796,-0.2328995,-0.3350976,0.9570442771795723
0.8653813,-0.2630502,-0.3167578,0.9583400784536614
0.8877798,-0.2506927,-0.3053373,0.9717153234834882
0.9064474,-0.2615942,-0.2928263,0.9878388818082077
1.323192,-0.5096443,-0.3317915,1.4562485985774338
1.197344,-0.6144496,-0.3122328,1.3815463389521176
1.073606,-0.7633961,-0.3308074,1.3582477626066498
1.061698,-0.7485934,-0.3323453,1.3409131665248315
1.100135,-0.6944741,-0.3099729,1.3374133588873038
1.041761,-0.6435104,-0.2781992,1.2556935975427286
1.003557,-0.5685506,-0.1972009,1.1701558152528961
0.9408188,-0.4879349,-0.09171712,1.063782172802564
0.8739517,-0.3733329,-0.004854647,0.9503644541715534
0.9632622,-0.3110296,-0.05097665,1.013514724545343
1.091555,-0.3234134,-0.1928234,1.1546728579611283
1.071187,-0.2893129,-0.1884971,1.125466436542565
0.9572191,-0.2837983,-0.1285007,1.0066391162617268
0.8405145,-0.3308969,-0.09046617,0.907822400612768
0.7212583,-0.3163754,0.005465131,0.7876146244838889
0.6740835,-0.2979982,0.01581181,0.7371848516559236
0.6197557,-0.2671083,0.02551,0.6753478597814463
0.5323505,-0.2189169,0.1041366,0.5849496520346174
0.5566154,-0.2125667,0.116719,0.6071479477253052
0.5682093,-0.1828215,0.1487829,0.6151600286113769
0.5784378,-0.1861056,0.1578531,0.6278082382382458
0.6668553,-0.2223544,0.1199442,0.7131087444780705
0.736332,-0.2287174,0.1465726,0.7848439273878087
0.8685033,-0.2636121,0.1998137,0.9293625966677322
0.9964038,-0.2747783,0.2798556,1.0708140845434795
1.053473,-0.2896064,0.3056781,1.1345114937582477
1.167346,-0.3570199,0.2743089,1.2511615664378521
1.253931,-0.4102913,0.2798093,1.3486938674077154
1.281908,-0.4463467,0.2026122,1.3724303992019888
1.347001,-0.4604735,0.1082014,1.4276396888449165
1.389376,-0.5191177,0.09596783,1.486290240909964
1.276281,-0.5939313,0.04515107,1.4084339527300649
1.024296,-0.5576681,-0.005641409,1.1662794823150733
0.8217698,-0.5277969,-0.02943029,0.9771086499520584
0.7755874,-0.5720883,-0.08733427,0.9677024918600153
0.8805401,-0.5950486,-0.1340864,1.0711735931840973
1.041449,-0.6004147,-0.1829553,1.215971411413599
1.123719,-0.5960387,-0.2393612,1.2943339240412923
1.117833,-0.5597438,-0.230108,1.2711465018602066
1.038993,-0.4876558,-0.1784327,1.1615303963960348
0.9488038,-0.3704208,-0.1308533,1.0269190844891187
0.9222789,-0.2948599,-0.126173,0.9764529460973631
0.9238174,-0.3008579,-0.1758794,0.9873639794318659
0.9210231,-0.2822748,-0.1992557,0.983699876705868
0.8653204,-0.270916,-0.1971585,0.9279258309985825
0.7524764,-0.2883316,-0.1675608,0.8230628565377982
0.6500629,-0.2692842,-0.1027107,0.7110873660954328
0.5910654,-0.2663459,-0.1019967,0.656278730673835
0.5950428,-0.2447763,-0.1374594,0.657941074505833
0.6376408,-0.1811726,-0.1732929,0.6851567193028248
0.6876321,-0.1226846,-0.219929,0.7322965117140529
0.7113369,-0.03403566,-0.2179396,0.7447524962706776
0.7289025,0.01638245,-0.2142158,0.7599050257393305
0.8337688,-0.04144616,-0.2414707,0.8690203075824382
1.035067,-0.1678855,-0.2705085,1.0829238588984453
1.274509,-0.2968054,-0.3120489,1.3453033682189939
1.407469,-0.3783187,-0.3539713,1.4997965548548178
1.393696,-0.4252866,-0.3772785,1.5051897884047083
1.322221,-0.420424,-0.3414058,1.4288396106248735
1.232453,-0.4055648,-0.2916703,1.3298476484583226
1.305704,-0.4741227,-0.3247871,1.4265840075500986
1.435055,-0.6128452,-0.3711763,1.6039744193314711
1.342936,-0.7628039,-0.3738712,1.589064682176484
1.161316,-0.8017504,-0.3477398,1.4534034279098835
0.9230519,-0.6971871,-0.2517379,1.1838355598631214
0.8032999,-0.6092668,-0.1535961,1.019847304677254
0.9759005,-0.5641078,-0.140812,1.135969812655728
1.062618,-0.4915217,-0.1447326,1.1797025561545802
1.060127,-0.4423813,-0.1277984,1.1558126585918889
1.087152,-0.4036146,-0.114729,1.16531839420742
1.018236,-0.3293975,-0.102975,1.0751330686604563
0.9943785,-0.3116286,-0.09132495,1.0460598606641556
0.9574764,-0.3791322,-0.07807346,1.032762192757932
0.8749324,-0.433819,-0.05549945,0.9781542916539612
0.8507066,-0.4384671,-0.0259259,0.9574065329611972
0.7749244,-0.367413,-0.00363022,0.8576207301491775
0.6865552,-0.222516,0.006761166,0.7217458876008367
0.5981674,-0.1379297,0.005739747,0.6138906948801831
0.5439464,-0.1342455,0.02622253,0.5608807015959909
0.5896868,-0.1361038,0.08974935,0.611808558532898
0.5913073,-0.1728435,0.1208224,0.627787584193332
0.5974556,-0.2279907,0.08783936,0.6454833122731056
0.6605447,-0.266604,0.07213396,0.7159611034821456
0.7467663,-0.2972917,0.127368,0.8137965772406394
0.8870064,-0.3102311,0.1939751,0.9595050955926081
0.9595237,-0.2824692,0.2104483,1.0221365206190511
0.9912985,-0.2357903,0.2189219,1.0422075512948226
1.080783,-0.2560928,0.2312066,1.1345183591217904
1.136804,-0.2982674,0.2232775,1.1963024777726619
1.191509,-0.3560399,0.1999617,1.2595407055509957
1.316342,-0.4879681,0.1352775,1.4103790730111745
1.396824,-0.5387915,0.05948067,1.4983162274873416
1.344085,-0.518166,0.05601778,1.4415958110570135
1.170287,-0.5010235,0.09606552,1.2766459156924133
0.9034719,-0.4301023,0.1022167,1.0058318529027552
0.7754887,-0.4645802,0.06677059,0.9064633460591102
0.8867402,-0.5789811,-0.05236436,1.060315671227894
0.9683789,-0.6332836,-0.2217783,1.1781304793379468
1.041355,-0.6836992,-0.2575307,1.2720797512530926
1.112396,-0.6052786,-0.2115085,1.2839481648439746
1.010621,-0.458307,-0.2099873,1.129378049216156
0.942725,-0.4216971,-0.1564985,1.0445336999233965
0.9202688,-0.3915416,-0.1134653,1.0065157043425055
0.8669307,-0.3934087,-0.1497788,0.9637286613812106
0.9071666,-0.4029958,-0.1605492,1.0055510432563033
0.9080338,-0.3379768,-0.1991903,0.989156446116978
0.883929,-0.282552,-0.2414305,0.9588820553515692
0.8601269,-0.220276,-0.2042926,0.9110846649430392
0.7441653,-0.2000439,-0.1864475,0.7928191634335979
0.6886612,-0.2508155,-0.1681078,0.7519460724324118
0.6809157,-0.2786345,-0.1326138,0.7475759460062771
0.7036849,-0.2868291,-0.1661156,0.7778417343252931
0.7947052,-0.2625281,-0.2194806,0.8652451051424734
0.8137106,-0.2279337,-0.2357415,0.8772985620473226
0.8118135,-0.1982866,-0.221207,0.8644601039786682
0.8542194,-0.1447204,-0.2064153,0.8906413720384934
0.9189979,-0.1067378,-0.2208169,0.9511625526054209
1.01759,-0.09082399,-0.2325581,1.0477698579054133
1.068429,-0.1291749,-0.2284788,1.1001950940085354
1.090461,-0.2251809,-0.213912,1.1338297817528917
1.159602,-0.3267079,-0.1991377,1.2210940479290282
1.262304,-0.4216927,-0.2406664,1.3524631003240903
1.35797,-0.461692,-0.3199256,1.4695558557943145
1.357071,-0.4629074,-0.3410807,1.473859221204064
1.224192,-0.4881379,-0.2986187,1.351331857935015
1.045575,-0.5629106,-0.2546375,1.214469299992227
0.9746933,-0.6855105,-0.2447386,1.2164903028816547
1.043793,-0.7749205,-0.2594352,1.3256365381085005
1.086418,-0.7887485,-0.2671573,1.368868616748715
1.059963,-0.724078,-0.2588036,1.3094998338396076
1.0092,-0.5909503,-0.2048066,1.1872879349482375
0.929556,-0.4514825,-0.1003554,1.0382591252916633
0.9509007,-0.3396388,-0.0521781,1.0110831864122458
1.063028,-0.287873,-0.1116926,1.1069664086176059
1.100574,-0.2892429,-0.1765303,1.1515587399236307
1.070189,-0.3139808,-0.1807635,1.1298512651769215
0.9753999,-0.3734888,-0.1425827,1.0541483173561204
0.8705434,-0.4304657,-0.06452939,0.9732988093765563
0.8298605,-0.4436663,0.0009078888,0.9410149092750939
0.7663859,-0.397579,0.01939454,0.8635928190655718
0.6966374,-0.3339883,0.04283594,0.7737485181706867
0.6887265,-0.3082127,0.05372115,0.7564556974475521
0.7014076,-0.2346683,0.05235006,0.7414731021046236
0.6821161,-0.1400664,0.08888172,0.7019978136991086
0.6588507,-0.1860392,0.1313291,0.6970955180848174
0.6681002,-0.2630878,0.162172,0.7361201161039413
0.663599,-0.2337172,0.1795157,0.7260945178992403
0.6920839,-0.2163196,0.1744679,0.7457971186011514
0.7634586,-0.2185111,0.1802806,0.8143201025846838
0.8322598,-0.1908775,0.1960395,0.8760833751775797
0.9462014,-0.2032908,0.203812,0.9890215215406589
1.046468,-0.2101444,0.1878706,1.0837671826641182
1.111961,-0.2047512,0.144546,1.1398569495943076
1.160574,-0.2277052,0.1270389,1.1895043294146725
1.172839,-0.2554865,0.1252518,1.2068606734028953
1.246964,-0.3720543,0.09318308,1.30461745574815
