accx,accy,accz,Total_Acceleration
0.9256148,0.1663663,0.3673494,1.009646515090846
0.9286822,0.1663854,0.3661213,1.0120175572803518
0.9318461,0.1642254,0.3659201,1.0144972428126062
0.9323784,0.1662132,0.3694279,1.0165792059348893
0.9318425,0.1685361,0.3741724,1.0182042264355515
0.9312789,0.1714601,0.3746963,1.0183694185858636
0.9294211,0.1735642,0.3749847,1.0171340314240498
0.9270672,0.1702727,0.380929,1.0166382290284632
0.9286819,0.1698808,0.3844061,1.0193515621773774
0.9319282,0.1702874,0.3825688,1.021688237813982
0.9314977,0.1696609,0.3770609,1.0191406715478046
0.9282974,0.1698826,0.3727554,1.0146638600337947
0.9253317,0.1687815,0.3762259,1.0130507774035564
0.9258697,0.1704601,0.3785303,1.0146805088736996
0.9273355,0.1732397,0.3774726,1.0160948218385428
0.9255636,0.175548,0.376443,1.0144921932661484
0.9244003,0.1759646,0.3754154,1.013121995443002
0.9245327,0.1735268,0.3771789,1.0134772746799703
0.9273334,0.1734006,0.3763745,1.0157129353740504
0.9325468,0.1714165,0.3751896,1.0197030874772568
0.9301455,0.1702283,0.3751134,1.0172798966610417
0.9245892,0.1724253,0.372949,1.0117740011671232
0.9239178,0.1695359,0.3739389,1.0110374985522843
0.9258844,0.1682628,0.371297,1.0116500156853654
0.9305557,0.169808,0.3681149,1.0150257372443814
0.9300747,0.1691205,0.371042,1.0155357486885137
0.926914,0.1712745,0.3693243,1.0123758967482088
0.9298895,0.1715394,0.3699784,1.0153838015396788
0.9295273,0.1695818,0.3728053,1.0157572446429413
0.9269971,0.1695187,0.3703623,1.0125356518757203
0.9264035,0.1675584,0.3753459,1.013500768065629
0.9242862,0.167842,0.3797554,1.0132571639537515
0.9268209,0.1706452,0.3752964,1.014378702858459
0.9326644,0.1709451,0.3742273,1.0193778407963654
0.9358822,0.1702705,0.3755554,1.0226971173892347
0.9352361,0.1672093,0.3768998,1.0220953830194812
0.9327435,0.1645402,0.3779506,1.0197698614141575
0.9334815,0.1678212,0.3758057,1.0201870368536252
0.9336071,0.1708865,0.3734831,1.0199578614032396
0.9327889,0.1693712,0.3730825,1.0188092496433767
0.9336647,0.1688151,0.3740186,1.0198618647444662
0.9316835,0.1696281,0.3736003,1.01802997040458
0.9288573,0.167379,0.3738259,1.0151538882923612
0.9270486,0.1649565,0.3770742,1.0143050359531152
0.9267196,0.165172,0.3797197,1.0150261362035216
0.9286857,0.1655164,0.379162,1.0166693810169802
0.9294077,0.1661857,0.3743174,1.015642592473622
0.9302951,0.1669417,0.3728761,1.0160487637087652
0.9308357,0.1667031,0.377907,1.0183608027575983
0.9301238,0.1665746,0.3793456,1.0182241722385892
0.9295665,0.1666698,0.374811,1.0160492044558127
0.926932,0.1667375,0.3703847,1.0120223083135766
0.9260766,0.1666046,0.3720209,1.0118174300957312
0.9283882,0.1673721,0.3747947,1.0150808523983397
0.9297057,0.1703219,0.3748726,1.0168046540328481
0.9292312,0.1730234,0.3780571,1.018005349132022
0.9275973,0.1718405,0.3782595,1.0163887827734965
0.9268686,0.1697099,0.375012,1.014160170765925
0.9263205,0.1709069,0.375049,1.013874050160502
0.9275332,0.1698717,0.3747205,1.0146869885257128
0.9312305,0.1658297,0.3750754,1.0175319598015091
0.9321599,0.164778,0.375295,1.0182927896617013
0.9303032,0.1653181,0.3744992,1.0163876076175318
0.9283487,0.1664,0.3755994,1.0151823373522857
0.9289349,0.166638,0.3757551,1.0158150258083505
0.9297154,0.164668,0.3764869,1.0164785590915186
0.9275199,0.164198,0.3765064,1.0144019012901002
0.9267255,0.1671884,0.3740189,1.0132434312651724
0.9263129,0.1705382,0.3739298,1.0133915145163246
0.9260095,0.1680478,0.3761097,1.0135048907672721
0.926893,0.1649925,0.3790738,1.014913840851375
0.9260877,0.1672646,0.3800516,1.01491629860152
0.9261826,0.1669884,0.3801161,1.014981568185615
0.9261376,0.1659913,0.3812259,1.0151931602607753
0.9265039,0.1670507,0.3781823,1.014562597930256
0.9304567,0.1658955,0.3727239,1.0159695335620798
0.9325093,0.1663505,0.3676235,1.016067478659262
0.932701,0.1671542,0.3674593,1.016315905186537
0.9333237,0.1655795,0.3727532,1.0185551766655452
0.9312631,0.1656826,0.3718083,1.0163380821917773
0.9280156,0.1663635,0.3720173,1.0135514981859086
0.927319,0.1656404,0.3770718,1.0146627086024202
0.9288873,0.1647995,0.3749088,1.015158657362966
0.9295643,0.1634389,0.3740029,1.0152242269942686
0.9292366,0.1621406,0.3760603,1.0154760372278657
0.9299948,0.1639559,0.3746117,1.0159260755334218
0.9300115,0.1686362,0.376782,1.017508837114789
0.9261816,0.1730909,0.3814954,1.0165193338360712
0.9230763,0.1735924,0.3827477,1.0142484798187967
0.9285748,0.1679667,0.3759411,1.0157734403759235
0.9346583,0.1633205,0.3673391,1.0174466756876992
0.9317486,0.1645499,0.3703281,1.0160585735288985
0.9297432,0.1635922,0.3738935,1.0153724317654729
0.9314112,0.1598397,0.3736911,1.0162286117802135
0.9301548,0.1618079,0.3788402,1.0172952597950558
0.9301578,0.1652998,0.3764511,1.016972461511171
0.9302459,0.1661691,0.3706504,1.0150622263101803
0.9283439,0.1686593,0.374715,1.015223959217226
0.9294749,0.1676862,0.3747035,1.0160929899928943
0.9304007,0.1643842,0.3712689,1.0151395095637545
0.9300006,0.1655563,0.3711579,1.0149227513473427
0.9290488,0.1654344,0.3710197,1.0139801927418948
0.9261867,0.1648347,0.3766423,1.0133369152114562
0.9264486,0.1659567,0.3811488,1.0154422890830823
0.9271905,0.1658329,0.3787897,1.015216435465241
0.9260014,0.1668228,0.3774628,1.0137981084938164
0.9279754,0.1658945,0.375984,1.0149006337525905
0.9284521,0.163757,0.3740491,1.014274315091445
0.9261052,0.1648095,0.3730597,1.0119320888880736
0.9263029,0.1657037,0.3727098,1.0121301170097352
0.9262385,0.1662569,0.3755263,1.0132024070596901
0.9243525,0.1668436,0.3790392,1.0128845177283785
0.9237921,0.166702,0.3783373,1.0120872064193382
0.9262036,0.1668403,0.3766689,1.0136904135801323
0.9296342,0.1674627,0.378361,1.0175561645540407
0.9286563,0.1688079,0.3780061,1.0167532848578902
0.9258526,0.1699024,0.3770511,1.0140204112658335
0.9267711,0.1711001,0.3781404,1.015465449007193
0.9283339,0.1713031,0.3752953,1.015871617952244
0.9292867,0.1702998,0.3723482,1.0154895246727906
0.9287412,0.1710129,0.3710461,1.0146333509544518
0.9272728,0.1710289,0.3702156,1.0129883122417602
0.9296986,0.1701122,0.3718474,1.015651582146929
0.9314896,0.1691702,0.3733589,1.017687722086402
0.9295458,0.16651,0.375658,1.0163168341426014
0.9269009,0.1660864,0.3758513,1.0139004736153643
0.9244171,0.1671845,0.3741789,1.0111911199263321
0.926267,0.1664605,0.3731155,1.01237089531925
0.9291934,0.1666038,0.3670588,1.0128619666249887
0.9275548,0.1670337,0.3638358,1.010264645179851
0.9272357,0.1677341,0.3668865,1.0111906227509975
0.9285834,0.1702179,0.368645,1.013479353643166
0.9281897,0.1716544,0.3721309,1.0146342981391177
0.9284649,0.1716765,0.3744815,1.0157540475068312
0.9275581,0.1722598,0.3747162,1.0151106826913459
0.9257261,0.1717983,0.3769904,1.0142017697658883
0.9267106,0.1684348,0.3769983,1.0145395685759575
0.9280775,0.165736,0.3768609,1.0152932609108858
0.9282669,0.1678435,0.3768159,1.015795796713429
0.9282847,0.1716617,0.3753345,1.0159016735842255
0.9283949,0.1722728,0.3755074,1.0161696784595622
0.9279578,0.1695487,0.3721566,1.0140774009788849
0.927025,0.1674013,0.3701985,1.0121489392717555
0.9272018,0.1697733,0.3758822,1.0147973096106286
0.9262841,0.1729741,0.378877,1.0156131420539123
0.9258037,0.1722827,0.3761856,1.0140559280928938
0.9270602,0.1716658,0.3737516,1.0141992012500503
0.9260861,0.1717135,0.3754099,1.013929772574743
0.926222,0.1703439,0.3775481,1.0146165804700906
0.926851,0.1707265,0.3764302,1.0148398935178347
0.9262643,0.1712064,0.3730037,1.013118425984416
0.9286332,0.1705059,0.3682919,1.0134450185790347
0.9306138,0.1709716,0.37275,1.0169640579966435
0.9309785,0.1707023,0.3815802,1.0205212843050262
0.9314772,0.1697875,0.3805102,1.020424216480641
0.9319309,0.1689796,0.3774511,1.0195678694830375
0.9321866,0.1674401,0.3732371,1.0179950771609754
0.9303442,0.1663605,0.3692832,1.0146852853156638
0.9285077,0.166745,0.3741585,1.0148522193435554
0.9274212,0.1689314,0.3788218,1.0159497311730732
0.9273728,0.1708713,0.3800488,1.016687956909577
0.9287374,0.1710844,0.3805886,1.0181702767867857
0.9288999,0.1708041,0.3798332,1.0179893538829667
0.9293689,0.170505,0.3819756,1.0191682227716727
0.9285679,0.1700784,0.3824072,1.0185284844660998
0.9276599,0.1693449,0.3769831,1.0155524816126589
0.9293831,0.1701047,0.3724114,1.0155682184755783
0.9291803,0.1714875,0.370698,1.0149881771569262
0.9303112,0.1707142,0.3702603,1.015733703626679
0.9330751,0.1706016,0.3703022,1.0182621310288476
0.9321647,0.1713151,0.3690997,1.0171108493936096
0.9274486,0.1717071,0.3696608,1.0130613707416791
0.9214067,0.1734312,0.3728421,1.0089994645542386
0.9231137,0.1737105,0.3751405,1.0114566899665995
0.9273053,0.1712402,0.3770465,1.0155699821609439
0.9257001,0.1685077,0.3790741,1.0144026288363561
0.9269781,0.1673795,0.3812296,1.0161891078022929
0.9286004,0.1681841,0.3815276,1.0179135051342674
0.9288942,0.1682957,0.3814142,1.018157487520359
0.9297654,0.1683096,0.3829037,1.0195131504610473
0.9266494,0.1708688,0.3766117,1.014747076818007
0.9258599,0.1732546,0.3690117,1.0116339978401576
0.9267779,0.1733086,0.3721808,1.0136427845404958
0.9260044,0.1728494,0.3736641,1.0134031396875234
0.9267563,0.171284,0.3710861,1.0128772590293948
0.9261866,0.1685286,0.3728173,1.0125296273279167
0.9263159,0.1691175,0.3753236,1.0136713866515221
0.9270671,0.1712403,0.3794403,1.0162438632093136
0.9277551,0.1709798,0.3829644,1.018147999679521
0.9296898,0.1725911,0.3776154,1.0181867227284052
0.9274756,0.1744584,0.3728931,1.0147393684850952
0.9258401,0.1734183,0.3771551,1.014642679468447
0.9293461,0.1732998,0.3791556,1.0185656401413754
0.9315546,0.1728963,0.3770916,1.0197476051089358
0.9304854,0.1719978,0.3781179,1.0189992488311312
0.9289204,0.1730974,0.379889,1.0184161584263676
0.9285483,0.1740253,0.3802694,1.0183769277872217
0.9281632,0.1736572,0.3782131,1.0171965876651818
0.9281222,0.1733617,0.3750123,1.015922891912088
0.927213,0.1737798,0.3752696,1.0152589024190826
0.9254334,0.1732812,0.3755328,1.0136460111818326
0.9266514,0.1714697,0.3743125,1.013999271595547
0.9267545,0.1692427,0.3749125,1.0139410127960058
0.9261471,0.1668682,0.3734425,1.0124488865201542
0.9286369,0.1649983,0.3706716,1.0134043448155627
0.9276121,0.1607994,0.3679362,1.0107906323157185
0.9193808,0.1531122,0.3585966,0.9986470461224226
0.90814,0.1492517,0.34987,0.9845828286400743
0.8991767,0.1581886,0.3469748,0.9766953889662273
0.8915449,0.172824,0.3350754,0.9679855202311499
0.8900645,0.1784005,0.3234636,0.9636753878176302
0.8938406,0.1858981,0.3341459,0.9721947357802242
0.8830987,0.2030721,0.3452597,0.9696936898754112
0.8745633,0.2066322,0.3435779,0.9620829512844202
0.8895147,0.1932937,0.3583019,0.978253089706028
0.9041706,0.1869954,0.3847768,1.0002724325621295
0.9178303,0.1850246,0.3919623,1.0150275891937814
0.9523555,0.1626353,0.3827805,1.0392074626207175
0.9907662,0.1384194,0.3769652,1.0690558242532708
0.9899707,0.1572092,0.3732466,1.069611959466932
0.9698239,0.197965,0.3551092,1.0515945426640678
0.9713756,0.2350114,0.3260407,1.051239008247796
0.9518923,0.2969471,0.29025,1.0385189422912324
0.9231002,0.3354184,0.2524577,1.0140780899851303
0.9476637,0.2894111,0.2319797,1.0176639201195008
1.008766,0.2255603,0.202478,1.0533202894543
1.069117,0.1938411,0.1615828,1.0984964874746075
1.068734,0.1890499,0.1649377,1.0977871707791544
1.031107,0.2189493,0.1815654,1.069619762297168
1.024973,0.2586564,0.1811138,1.0725087377454787
0.9846557,0.290901,0.2083677,1.0476580251908445
0.9539213,0.3134726,0.2232182,1.0286191143254582
1.009529,0.3219045,0.1885507,1.0762540013545778
1.03683,0.3320277,0.1646428,1.101074972042835
1.006967,0.3308825,0.1711098,1.07365931819702
0.9711366,0.3195589,0.1999512,1.041731572340116
0.9248494,0.3152873,0.2487924,1.0082907083373376
0.887129,0.304884,0.2930129,0.9827556540989271
0.8782788,0.3060605,0.3266491,0.9857719384931284
0.8874284,0.3121658,0.356113,1.0058792773415703
0.8879131,0.2956303,0.3901812,1.013917312340183
0.898795,0.2618023,0.4280365,1.0293629785661325
0.9172977,0.2050242,0.4473821,1.0409710545501925
0.8890845,0.1778421,0.4461751,1.0105301977341745
0.8334353,0.2047672,0.4470781,0.9676894300247058
0.7805059,0.2164556,0.4547553,0.9288944340366455
0.7611046,0.2174129,0.4569547,0.9139782158671288
0.7915521,0.2126109,0.4698276,0.9447201149202762
0.8032852,0.1853882,0.4981404,0.9632132450036388
0.7882579,0.1836065,0.522301,0.9632550017288568
0.7815199,0.1997547,0.5435126,0.9726670759447243
0.7588909,0.2234329,0.5475842,0.9621258311649573
0.7186269,0.2716343,0.5439551,0.941327235957884
0.6960658,0.2865743,0.5577871,0.9368878675041854
0.70179,0.2718429,0.5639844,0.9404712488023066
0.7297977,0.2891296,0.5612482,0.9649871245382966
0.791946,0.312793,0.5582344,1.0181569491529094
0.8516093,0.3168016,0.5433772,1.05870696374818
0.8441189,0.316017,0.5270588,1.0441237667459016
0.803984,0.3112085,0.5164714,1.004979457375229
0.7901217,0.3064895,0.5098177,0.9890107186751972
0.8057328,0.309223,0.5020078,0.9984167666789655
0.8343014,0.3190357,0.4930241,1.020252599652292
0.8524711,0.3395819,0.4835022,1.0372064503018
0.863091,0.3669774,0.4606745,1.044901661086827
0.8571776,0.3791091,0.4252274,1.0292208166158174
0.8260138,0.3737003,0.396758,0.9896300432861413
0.8164652,0.3714193,0.3965745,0.980733936026372
0.8339383,0.3720978,0.410415,1.00117447690037
0.8574377,0.3742176,0.4157925,1.0237781129655488
0.874014,0.3799343,0.4194044,1.0412255256436282
0.8487889,0.3798774,0.4237474,1.021915502769544
0.8056898,0.3867132,0.4434993,0.9976847107071302
0.7878997,0.4064802,0.4662764,1.0017114212432092
0.8023935,0.4109999,0.4618227,1.0129345748258127
0.8261406,0.3927716,0.4623546,1.0249632173283487
0.8177763,0.3798555,0.4783233,1.0207063520155197
0.7906339,0.393274,0.4818265,1.0059439243851818
0.7608973,0.4178873,0.4782662,0.9911271637438962
0.747371,0.4353551,0.4806975,0.9895289592746945
0.7666948,0.4448097,0.4898882,1.0127522076304598
0.7713694,0.4383465,0.4988518,1.0178465128308147
0.7676095,0.4273613,0.5029171,1.0123179513869889
0.7636279,0.4264171,0.5098299,1.0123663564959229
0.7335827,0.4290914,0.523845,0.9983369127294903
0.7132586,0.4476969,0.5353906,0.9979045241464386
0.705209,0.4702471,0.5406648,1.0053708244714732
0.7075164,0.4684668,0.5396337,1.0056068462112269
0.7219236,0.4591459,0.5319369,1.007445039347249
0.7181341,0.4518833,0.5286383,0.9996867282446986
0.7264331,0.4400691,0.5246024,0.9982852997195641
0.7415759,0.4350663,0.5156088,1.0025317628354424
0.7374748,0.4424759,0.5116127,1.0007005333850583
0.7490573,0.4455577,0.5035991,1.006588573466533
0.7671012,0.4347021,0.4817617,1.0047410125861989
0.7719264,0.4248239,0.4553177,0.991796310217708
0.7634516,0.4216303,0.4555592,0.9839535762043299
0.7521111,0.4204409,0.47513,0.9839665512790666
0.7643231,0.420699,0.4737064,0.9927614029541892
0.7801468,0.4181841,0.4697565,1.0020868926072728
0.7866777,0.4073277,0.4706005,1.003116388792861
0.7873457,0.3938289,0.468887,0.9974314375197425
0.768578,0.3960163,0.4818178,0.989792626940881
0.7515247,0.4073738,0.4906951,0.985659408112427
0.7504976,0.4187588,0.4915328,0.9900555911962923
0.7523516,0.4393619,0.4913164,1.0002317801905367
0.7533446,0.4483995,0.4857757,1.0022815116821722
0.7566473,0.4430271,0.4854115,1.0022038077476807
0.761096,0.4478855,0.481776,1.0059705047874168
0.7536572,0.4506872,0.4794017,1.0004719472921617
0.7409619,0.4471832,0.4842649,0.9917206486636546
0.7389059,0.4479425,0.484117,0.990456299919416
0.7508273,0.4417789,0.4784957,0.9939156733994037
0.7756605,0.4289609,0.4642149,1.000575903353199
0.7878979,0.4226084,0.4555991,1.003469730732213
0.7787361,0.4248481,0.4600936,0.9993057301335664
0.7720674,0.4277785,0.4602011,0.9954233107810063
0.7723684,0.4286223,0.4553858,0.9938039284574649
0.7735264,0.4325222,0.452541,0.9950939160053186
0.7771575,0.4339003,0.4525878,0.9985384153126908
0.7827733,0.4317013,0.4514316,1.0014442276498179
0.7854019,0.4302747,0.452416,1.0033308023975442
0.7856816,0.4257271,0.4583686,1.0043111637928406
0.7849668,0.4260828,0.460745,1.0049902410387277
0.7786674,0.4333574,0.4603593,1.003021555627799
0.7719811,0.4394988,0.4609524,1.0007952483022737
0.7723207,0.4446132,0.4624048,1.0039812549673275
0.7741417,0.4435844,0.4589,1.003320338477323
0.7715772,0.4407974,0.4512072,0.9966050675861727
0.7714227,0.4394943,0.4503331,0.9955139992804671
0.774023,0.4333764,0.4509712,0.995139051507577
0.7748094,0.4326064,0.4499089,0.9949351345432174
0.7809285,0.4352777,0.4518347,1.0017337941557278
0.7853063,0.4349374,0.4533243,1.0056736288224624
0.7839298,0.4372828,0.453591,1.0057370301350548
0.7847569,0.4319163,0.4551633,1.004772965385808
0.7806671,0.4235446,0.4588126,0.999670021122135
0.7748599,0.4270189,0.4600752,0.9972071977479204
0.7717698,0.4319386,0.4618188,0.9977355272793687
0.7676861,0.4367984,0.4662367,0.9987549503269859
0.7678894,0.4456201,0.46127,1.0005005832363967
0.769691,0.4489616,0.4547423,1.0003905803059372
0.7715372,0.4462084,0.4578935,1.0020169881577108
0.7752625,0.44186,0.4585087,1.0032459476528874
0.7772036,0.4374475,0.4554189,1.0014050756743846
0.7784045,0.4356422,0.4543321,1.0010571158188228
0.778828,0.4331717,0.4525188,0.9994918907216456
0.7781287,0.4275635,0.4529858,0.9967401643846705
0.7751283,0.4267983,0.4550221,0.9950003928804199
0.7709299,0.4319562,0.4531518,0.9931090691740208
0.7738053,0.4347888,0.4525337,0.9962944808384818
0.7788033,0.4367446,0.4561272,1.0026626792196316
0.7786267,0.4378869,0.4585488,1.0041272215839685
0.7790285,0.4344539,0.4587635,1.0030451355595669
0.7783896,0.4320571,0.4580886,1.0012037117882304
0.7751554,0.4315525,0.4581904,0.9985198531113791
0.7748309,0.4308206,0.458508,0.9980976400348666
0.7761203,0.4331349,0.4558952,0.9989038968054634
0.7775649,0.4366478,0.4504901,0.9991045016187545
0.7782648,0.4369481,0.4460809,0.9978015385623836
0.7773009,0.4357441,0.4506843,0.9985919827898229
0.7769396,0.4351441,0.4588788,1.0017760642490965
0.7764137,0.431838,0.4580734,0.9995666719030051
0.7769777,0.4297252,0.4560527,0.9981694039538679
0.778446,0.4322279,0.4560461,1.0003885134184718
0.7778474,0.4347175,0.4504063,0.9984446492283385
0.7787906,0.438021,0.4444582,0.9979580585558694
0.7815221,0.4360223,0.4453668,0.9996218412119355
0.7815192,0.4310218,0.4501101,0.9995754869772917
0.7775217,0.4347168,0.4528185,0.9992813838531067
0.7739241,0.4357608,0.4557337,0.9982680966018799
0.7772874,0.4326424,0.4580744,1.0005934760989998
0.7812585,0.4337133,0.4553013,1.0028815205201609
0.7795149,0.4328127,0.4532284,1.000193128935537
0.7790943,0.431393,0.4526325,0.9989814957233892
0.7789236,0.430425,0.4523159,0.9982871974811508
0.7767622,0.4298631,0.4533558,0.9968316214306656
0.7780968,0.4316604,0.4521347,0.9980937421116767
0.7791863,0.4320685,0.4508795,0.9985523533196393
0.7789537,0.4336151,0.4501899,0.9987301275888847
0.7805825,0.4340981,0.4511497,1.000642919097492
0.7805962,0.4324045,0.4538408,1.0011371288786217
0.780303,0.4336097,0.4514864,1.0003649899551912
0.7798872,0.43259,0.4486745,0.9983320889233652
0.7785759,0.4311469,0.4488391,0.9967570512061753
0.7796643,0.4323949,0.4491236,0.9982754020396676
0.7811115,0.4320012,0.4505731,0.9998881590844547
0.7820473,0.4327458,0.4501278,1.0007406972776565
0.7815055,0.4338076,0.4496761,1.0005740728497916
0.779717,0.4333923,0.4513623,0.999757676464442
0.7803343,0.4342008,0.4514567,1.0006323532906678
0.7791219,0.4344711,0.4515939,0.9998665522518643
0.7767724,0.4321758,0.4523248,0.9973710484079834
0.7782209,0.4295134,0.4525286,0.9974425616517123
0.7802828,0.4302987,0.4513071,0.9988374831312349
0.7825454,0.431671,0.4487506,1.000047127040781
0.7831547,0.4325231,0.4486397,1.0008421936458263
0.7778195,0.4375056,0.4499376,0.9994289211871797
0.7739295,0.4394293,0.4522042,0.9982753223266516
0.7791959,0.4331381,0.4558753,1.0012877475523758
0.7842158,0.4289251,0.4573319,1.0040535987372685
0.7807225,0.4321362,0.4569724,1.0025433116421705
0.7782908,0.4347501,0.454925,1.0008501258628337
0.7798248,0.4318174,0.4528245,0.9998214907862554
0.7789306,0.4304391,0.4517899,0.998060525302539
0.7789432,0.4318573,0.4494008,0.9976042879970844
0.7792812,0.4319879,0.4503715,0.9983622701364971
0.7769513,0.433261,0.4527177,0.9981591719690702
0.7765642,0.4344866,0.4516717,0.9979167735247715
0.778952,0.4346405,0.4521498,1.0000590103510343
0.7813302,0.4341275,0.4525481,1.0018699269375742
0.7800865,0.4326703,0.4523644,1.0001860258830355
0.7787009,0.4335841,0.4528323,0.9997136366764785
0.783201,0.4345612,0.4498495,1.002303255305843
0.7851748,0.4345621,0.4477831,1.0029224246954795
0.7800973,0.4349555,0.4499522,1.0000975286102751
0.776109,0.4335368,0.4523251,0.9974454034809375
0.7775893,0.4330489,0.453258,0.9988089325940672
0.7798026,0.4334898,0.452762,1.0004993404869391
0.7787437,0.4332019,0.4525736,0.9994641063441247
0.779149,0.4334753,0.4529564,1.0000717475321708
0.7798127,0.4332318,0.4523571,1.0002122702371432
0.7794386,0.4329788,0.4506054,0.9990197189888496
0.7814291,0.4316531,0.4477322,0.9987091468406906
0.7811685,0.4298423,0.4464079,0.9971302028541459
0.7798954,0.431031,0.447809,0.9972750164238349
0.7793183,0.4335746,0.4492179,0.9985592962666062
0.7785516,0.4351335,0.450246,0.9991022055829974
0.7806371,0.4341711,0.4505576,1.000450387020456
0.7808669,0.4328908,0.4504929,1.0000457055508314
0.7794224,0.4357618,0.4517386,1.0007274287691728
0.7774132,0.4396901,0.4517176,1.000873347493083
0.7735995,0.4409072,0.4508711,0.9980681811516185
0.7753623,0.4391267,0.4516886,0.9990202932293918
0.7795769,0.4336623,0.4523219,1.0001990975173445
0.7805541,0.4288348,0.4555808,1.0003588626320508
0.7791848,0.4302556,0.4605442,1.0021725370593828
0.7757661,0.433558,0.4613617,1.001319229566725
0.7764542,0.4333658,0.4613826,1.001778890219813
0.7798359,0.4328469,0.4584879,1.0028517458801327
0.7806381,0.4320233,0.4508796,0.999666138573604
0.7799531,0.4305714,0.4501115,0.998157768656749
0.7775848,0.4321677,0.4539291,0.998728526648328
0.7769728,0.4325626,0.4540215,0.99846515077936
0.7765542,0.4316008,0.4541547,0.9977836276620147
0.774403,0.4340683,0.4528311,0.9965798014213914
0.7768752,0.4353505,0.4517192,0.9985566432976799
0.7796105,0.434428,0.4536832,1.0011736437084677
0.7778759,0.4337649,0.4529741,0.9992139108037027
0.7756545,0.4330505,0.4540624,0.9976699364089608
0.7745566,0.4333335,0.4570135,0.9982871270371366
0.7760563,0.433437,0.4561246,0.9990899181073994
0.777901,0.4332413,0.4569242,1.0008035343524373
0.7778388,0.4333933,0.4576994,1.0011751555200967
0.7779824,0.4332887,0.4570743,1.000955857157517
0.778797,0.4333718,0.4567552,1.001479504019568
0.7801571,0.4333094,0.4505551,0.999700972763746
0.7801023,0.4333287,0.4449522,0.9971538602411466
0.7787034,0.4333714,0.4481164,0.9974958964619755
0.778671,0.4332728,0.4509905,0.9987223220450668
0.7780593,0.4333941,0.4506342,0.9981372162387996
0.7777916,0.4329388,0.4550591,0.999737246514708
0.7812776,0.4315481,0.4595384,1.0038944127496328
0.7827161,0.4304001,0.4565003,1.0031357152346387
0.7785417,0.4320756,0.4538168,0.9993829049550977
0.7758356,0.4343463,0.4536806,0.9982002170744154
0.7763418,0.4333112,0.4521007,0.9974268040378552
0.7766487,0.432836,0.452875,0.9978105891063144
0.7776654,0.4336178,0.4540264,0.9994637775982479
0.7797722,0.4322787,0.4524999,0.9998328449628668
0.7808611,0.431724,0.4499535,0.9992936614586625
0.7786712,0.4333425,0.4467192,0.9968312814435198
0.7759036,0.4350278,0.4466245,0.9953637663015719
0.7762505,0.4353133,0.4477967,0.996285296708744
0.776633,0.4347757,0.4462873,0.9956711706887872
0.7763904,0.4369973,0.4465802,0.9965854546658255
0.7773692,0.4386926,0.4463557,0.9979917240768532
0.7780299,0.4368989,0.4446757,0.9969692333696712
0.777509,0.4373247,0.4475167,0.9980202077563259
0.7758227,0.4368302,0.449413,0.9973432358202114
0.7746883,0.4307167,0.44788,0.9931038879270284
0.7757641,0.4267952,0.4494886,0.9929773829860427
0.7769319,0.4307312,0.4525913,0.996991187888208
0.7767595,0.4355555,0.4546674,0.9998931738157132
0.7778613,0.4335502,0.4547909,0.9999343681865025
0.779093,0.4330984,0.4524528,0.9996367655100528
0.7748562,0.4372828,0.4525971,0.9982296893915198
0.7706567,0.4369943,0.4541313,0.9955455816420813
0.7738998,0.4372287,0.4567145,0.999338766912392
0.7766785,0.4381675,0.4610676,1.0038942086635723
0.7752276,0.4358022,0.4581225,1.0003887316102926
0.7756068,0.4361759,0.4527123,0.9983805639726466
0.7764795,0.4362063,0.4516969,0.9986122568592626
0.7768748,0.4357781,0.4497571,0.9978569317868469
0.7783065,0.4364071,0.4521179,1.0003113317228143
0.7769588,0.4348139,0.4559692,1.0003179573911938
0.7755532,0.4349625,0.4542024,0.9984863357113356
0.7768431,0.4365398,0.4553888,1.0007153232398762
0.7765386,0.4373767,0.45798,1.0020260752060548
0.7770384,0.4351336,0.4552031,1.000169879157101
0.7785585,0.4309019,0.4514507,0.9978163758309191
0.7785141,0.4320864,0.4501316,0.9976980095611747
0.7793449,0.4343699,0.4512786,0.9998540183446681
0.7794241,0.4347129,0.4519489,1.0003674531383104
0.7788389,0.4350326,0.4498694,0.9991125423456207
0.7793473,0.4334095,0.4487146,0.9982839280288449
0.778981,0.4334561,0.448689,0.9980067172665774
0.7783601,0.4353138,0.4486428,0.9983100278642352
0.7785035,0.4360954,0.4508333,0.9997487493377024
0.7792646,0.434735,0.4530148,1.0007348530241165
0.7795026,0.4327924,0.4539103,1.000483945573646
0.7788668,0.4359845,0.4544497,1.0016189426186888
0.7792068,0.438958,0.4540537,1.0030015580316562
0.779341,0.4366561,0.453631,1.0019091915484206
0.7787623,0.4344741,0.4511961,0.9994080168416251
0.7784109,0.4327471,0.4469289,0.9964632574522906
0.777508,0.4317396,0.4446944,0.9943193056878258
0.7775601,0.4313954,0.4442089,0.9939935850358291
0.7781284,0.4303241,0.4458046,0.9946880814147369
0.7775736,0.4322368,0.4517185,0.9977469408289107
0.7777595,0.4341759,0.4566266,1.0009627384716275
0.7775889,0.4320545,0.4510172,0.9973625735254457
0.7757975,0.4306769,0.444669,0.9925093816991656
0.7745761,0.4319543,0.4515203,0.9952000971120281
0.7747741,0.4349793,0.4575424,0.9994133005203903
0.7751607,0.4380482,0.4538375,0.9993642042588778
0.7740157,0.4378438,0.450753,0.996988347000069
0.7733379,0.4364979,0.4490031,0.9950807545573525
0.7746735,0.4350622,0.447326,0.9947354923531632
0.7752928,0.4325338,0.4470303,0.9939821442019822
0.7755501,0.4328475,0.447776,0.9946548456837979
0.7779312,0.4341329,0.4511071,0.9985719515719736
0.7814295,0.4325716,0.4533437,1.001634046409416
0.7811247,0.4314209,0.4513177,0.9999837279877059
0.7778962,0.4304311,0.4492767,0.9961139407640774
0.7780294,0.430121,0.4516638,0.9971629807287272
0.7784521,0.4322154,0.4540845,0.9994951511297191
0.7779851,0.4329937,0.4519933,0.9985200565369681
0.779594,0.4335599,0.4507,0.9994355815779273
0.778515,0.4346201,0.4500216,0.9987490560774362
0.7768943,0.4341722,0.4493023,0.9969668045680458
0.7783417,0.4332577,0.450281,0.9981387756866177
0.7787341,0.4316704,0.4480642,0.9967585766175328
0.7791631,0.4332771,0.4467088,0.9971824977322156
0.7795547,0.4360859,0.4495016,0.9999640647910604
0.7786116,0.4344048,0.4515992,0.9994425402984606
0.7785821,0.4339605,0.4525497,0.9996564574746416
0.778698,0.434061,0.451885,0.9994896598514664
0.7799821,0.4338401,0.4511574,1.0000661519435503
0.7811832,0.437734,0.4515485,1.002873020162817
0.7793586,0.4386265,0.4522638,1.0021654447678037
0.7788918,0.436366,0.4531888,1.0012331449311296
0.7805136,0.4366701,0.4527235,1.0024174896076086
0.7814342,0.4345551,0.4526276,1.0021722846633756
0.781624,0.4302778,0.4529754,1.0006306888927603
0.7811144,0.4290432,0.452261,0.9993786997302875
0.7819298,0.4314805,0.4510809,1.0005316648427975
0.7821374,0.4346547,0.4494405,1.0013293083452117
0.7796918,0.4335845,0.4495565,0.9990074415737553
0.7787127,0.4325363,0.4496161,0.9978154926328765
0.7790038,0.4349879,0.4478525,0.9983152083971776
0.7783538,0.4348655,0.4476065,0.9976443353755585
0.7780772,0.4342395,0.4473595,0.9970449311642581
0.7802147,0.4342258,0.4471431,0.9986110230511878
0.7830879,0.4327084,0.4491283,1.0010891311056473
0.7817975,0.4339234,0.4498408,1.0009263676307314
0.7793855,0.4363085,0.4492161,0.9998009648333561
0.7792048,0.4374043,0.4500092,1.0004953383630382
0.7788438,0.4354279,0.4505577,0.9995986004022513
0.779313,0.431769,0.4504624,0.9983334088087807
0.7795346,0.4334579,0.4507395,0.9993628172639905
0.7793289,0.4351266,0.4496706,0.9994460170049856
0.7797116,0.4336137,0.4480789,0.9983715343635654
0.7786795,0.4324894,0.4484678,0.997252331393339
0.7785671,0.4300531,0.4489165,0.9963124118439306
0.7771719,0.4316937,0.4488041,0.9958818870459037
0.7741638,0.4349594,0.4502112,0.9955949947063012
0.775717,0.4329041,0.4513059,0.996403452051738
0.7780194,0.432877,0.4502258,0.9976973262923982
0.7792037,0.4343967,0.4488377,0.9986561870863616
0.7789426,0.4346226,0.448373,0.9983419883259044
0.775775,0.4367805,0.4483564,0.9968086663077372
0.7761727,0.4363299,0.4479018,0.9967165416017435
0.7773414,0.4344854,0.4474091,0.9966002798163013
0.7775392,0.4349311,0.449709,0.9979831932276465
0.7806522,0.4340299,0.4524049,1.0012342408262216
0.7820179,0.4319885,0.4504038,1.0005146891011147
0.783101,0.4303376,0.4481882,0.9996550849137917
0.7823248,0.4317376,0.4487481,0.9999021478136799
0.7781921,0.4345,0.4489422,0.997959064011771
0.7794776,0.4323457,0.4504961,0.9987266239194087
0.782537,0.431166,0.4529735,1.0017251457496963
0.7827881,0.433484,0.4527686,1.0028284962562493
0.7800709,0.4337879,0.4507553,0.9999314434956578
0.7742754,0.4350551,0.4494606,0.9953844312794579
0.7746274,0.4364107,0.4499018,0.9964504691897585
0.7787438,0.43417,0.4499557,0.9987019710108366
0.779744,0.4316818,0.44803,0.997537349118939
0.7809621,0.4320752,0.4478993,0.9986013033397964
0.7804014,0.435006,0.4534074,1.0019155830371738
0.7787144,0.4364713,0.4584175,1.0035187675361632
0.7793407,0.4344853,0.453613,1.0009566206192853
0.7811093,0.4324361,0.4470069,0.9984727776846548
0.7822342,0.4332008,0.4485034,1.0003542255530489
0.7801546,0.4343134,0.4493954,0.9996127024312367
0.7783172,0.4346378,0.4474762,0.997458084618657
0.779253,0.4363534,0.4468729,0.9986665692086473
0.7794173,0.4348511,0.4438996,0.9968117483209455
0.778988,0.4319357,0.4444456,0.9954509754065491
0.7791515,0.4336406,0.4505864,0.9990742383754923
0.7791108,0.4337647,0.4525956,1.0000041153825767
0.7781806,0.4332617,0.4515514,0.9985887110042903
0.7774898,0.4364284,0.4530116,1.0000898195488042
0.7779622,0.4380289,0.4556907,1.0023714460869984
0.7787383,0.4360849,0.4553801,1.0019852371022788
0.779429,0.4318741,0.4533128,0.9997586203357538
0.7786974,0.4298097,0.4518807,0.9976483278256622
0.7763076,0.4323634,0.4490752,0.9956204772564494
0.7748473,0.4342538,0.4491814,0.9953535207340606
0.7773198,0.4336837,0.4506056,0.997673809353082
0.7805853,0.4346594,0.4490709,0.9999534378216117
0.7785132,0.4371998,0.4503425,1.000017417348583
0.774801,0.4372023,0.4505054,0.9972048717066369
0.7732096,0.4377985,0.4494363,0.9957477591700119
0.7731562,0.4417308,0.4526933,0.9989133261359415
0.7751062,0.4430884,0.4545802,1.0018782908742159
0.7752731,0.4394254,0.4569562,1.0014749275279986
0.7746086,0.4338607,0.459491,0.999692737434583
0.7759089,0.4319304,0.457365,0.9988900013356676
0.7774741,0.433135,0.454216,0.9991917128618562
0.7799417,0.4348786,0.4501417,1.00002800071585
0.7795612,0.4384509,0.4499189,1.0011902280952705
0.7773219,0.4363056,0.4561171,1.0013164942830914
0.7780626,0.4318139,0.4589563,1.0012419982510024
0.7775413,0.4338036,0.4542398,0.9995448126435803
0.7766343,0.4336123,0.4489465,0.9963600867708571
0.7765452,0.4326766,0.4506951,0.996673246854058
0.7757241,0.4339933,0.4527022,0.9975155866704741
0.7758611,0.4329358,0.4513297,0.99654019061799
0.7745494,0.4333732,0.4527529,0.9963555048159317
0.7742156,0.4332301,0.452876,0.9960897480675976
0.7764729,0.4316951,0.4524834,0.997001530126198
0.7771823,0.4326793,0.4532986,0.9983503016695793
0.7765033,0.4337123,0.452629,0.9979663049037177
0.7749244,0.43391,0.4549609,0.9978853312601453
0.774652,0.4345686,0.4571633,0.9989664018758839
0.7744322,0.4365993,0.4569872,0.9996006613248963
0.7729414,0.4382797,0.4571222,0.9992438185942858
0.773961,0.4399058,0.4564525,1.000440716459946
0.7748775,0.44123,0.4559037,1.0014825193581465
0.7761689,0.4391745,0.4533599,1.0004237110871923
0.7788959,0.4371505,0.4507808,1.000491235511686
0.77922,0.4337114,0.4505773,0.9991542874677815
0.7782398,0.4298443,0.4496562,0.9963001589606267
0.7764615,0.4299498,0.4504742,0.9953272307979573
0.7759256,0.4296449,0.4529423,0.9958975870844652
0.7776665,0.433311,0.4543589,0.9994826751637369
0.780656,0.4382037,0.4528775,1.003266815476292
0.7843544,0.4359841,0.4499791,1.0038800479584102
0.7818541,0.4358887,0.450554,1.0021445501475823
0.7768,0.4394553,0.450364,0.9996834164844839
0.7766582,0.4408648,0.4492209,0.9996795228987587
0.7755061,0.4399706,0.4508919,0.9991433057810977
0.7744469,0.4369714,0.4517527,0.9973928550450218
0.7766544,0.4346129,0.4529744,0.9986321830089044
0.7783967,0.4340525,0.453444,0.9999572273168189
0.7796539,0.4338977,0.4516936,1.0000772600811698
0.7794032,0.4324968,0.4509,0.9989162328145839
0.7783115,0.43265,0.4479086,0.9967832901319174
0.7775303,0.4366635,0.4461493,0.9971346837518139
0.7749394,0.4384648,0.4487516,0.9970759514770978
0.7746454,0.4373312,0.4489158,0.9964233386087662
0.7773807,0.4369327,0.4485057,0.9981925164988316
0.7779541,0.4353323,0.4506193,0.9988916591215437
0.7769497,0.4315319,0.4545685,0.9982500379363629
0.7763491,0.4300984,0.4577987,0.9986401796818812
0.77802,0.4346852,0.4535225,0.9999745004275309
0.7801176,0.4394173,0.4483666,1.0013509082058147
0.7789014,0.4391822,0.4498286,1.0009566249827013
0.7778899,0.43763,0.449778,0.99946633895595
0.7779077,0.4370868,0.4479167,0.9984060449498591
0.7774719,0.4362882,0.4497896,0.998559278669529
0.7779687,0.4341253,0.4513333,0.9987000660702241
0.7778153,0.4325988,0.4513748,0.9979366576845297
0.7775809,0.4337312,0.4542951,0.9995693311533023
0.7779949,0.4356015,0.4581227,1.0024475744314763
0.7776512,0.4372912,0.456949,1.0023808513034755
0.7777763,0.4380445,0.4521603,1.000633746041992
0.7778777,0.4372926,0.4499297,0.9993774407670708
0.7776444,0.4373543,0.4500508,0.9992773985037838
0.7777033,0.4372353,0.4495696,0.999054530864627
0.7768462,0.4346346,0.449282,0.9971216422762069
0.7760871,0.4325307,0.450474,0.9961530092836642
0.7767097,0.4333106,0.4501615,0.9968356987130326
0.7783075,0.4346904,0.4455955,0.9966311544541743
0.7796602,0.4347994,0.4440288,0.9970366698039947
0.7796862,0.4345086,0.4483407,0.9988581867416865
0.7806263,0.433902,0.4510856,1.0005631336317813
0.7826399,0.4333227,0.4495196,1.0011801267461615
0.7824085,0.4350605,0.4443881,0.9994605959987167
0.7826087,0.4369046,0.4401622,0.9985513352480633
0.7857266,0.4357588,0.4397985,1.0003373142731657
0.7855788,0.4341588,0.4414523,1.0002539916452071
0.7795517,0.4337637,0.4434581,0.9962463986716288
0.9607088,0.1418323,0.3074025,1.0186138113765097
0.9519295,0.1482905,0.3109614,1.0123521312519967
0.9488804,0.1478972,0.316523,1.0111549855491986
0.9553854,0.1460917,0.3176719,1.017359072988323
0.9609437,0.1482029,0.3147037,1.0219663952067064
0.9563744,0.1470067,0.313312,1.0170680273040982
0.9520443,0.1491126,0.312112,1.0129347546536498
0.951684,0.1513681,0.3123245,1.012996214629581
0.9526,0.1523861,0.3141486,1.0145726323704825
0.9562215,0.1550905,0.3146933,1.0185501918498616
0.9560622,0.1543337,0.3160257,1.0186982204190895
0.9543523,0.1531901,0.3172062,1.017288205265224
0.9544121,0.1517128,0.3181813,1.0174274273774715
0.9520232,0.1491992,0.3186431,1.0149591123766957
0.9529068,0.1495988,0.317848,1.0155976179332444
0.9562796,0.1506152,0.3201392,1.019629697107651
0.9571602,0.149818,0.3225754,1.021105268947918
0.9574124,0.1502458,0.3222503,1.021301894613679
0.9565449,0.1531311,0.3220749,1.0208621457930693
0.956878,0.1547012,0.3212447,1.021149413868279
0.9572038,0.1544517,0.3204063,1.0211535826931324
0.9553856,0.1534854,0.3197446,1.0190956883088456
0.9546499,0.1523044,0.3184973,1.0178377041241202
0.9538474,0.1510652,0.3177358,1.0166619869649105
0.9541488,0.1493383,0.3154083,1.0159646923477312
0.955524,0.1476143,0.3123315,1.0160546550421095
0.955254,0.1459484,0.3132822,1.015852783042602
0.9549013,0.1506159,0.3149353,1.0167132758357145
0.954185,0.1560512,0.3124686,1.016099216234517
0.9563636,0.1495746,0.3112963,1.0168132978889537
0.96161,0.1448188,0.3105401,1.0208336939195581
0.9618083,0.1492821,0.3076106,1.0207764851139842
0.9545319,0.1521202,0.3114309,1.0155101717070392
0.9474999,0.1530277,0.3178464,1.0110390059044507
0.9522182,0.1535122,0.3174264,1.0154038681121123
0.9616788,0.1543614,0.3118859,1.022705417409241
0.9629479,0.1570545,0.3068006,1.0227714222860453
0.9604319,0.1574499,0.3112681,1.0218159010434462
0.9560756,0.1555102,0.3164888,1.019033432103599
0.9533058,0.1551955,0.3123038,1.0150917470989163
0.9546729,0.1551757,0.3114357,1.0161063128922043
0.9539289,0.1555232,0.3140524,1.0162660684777436
0.9540679,0.1575235,0.3146938,1.0169028462056244
0.9545629,0.1573061,0.3174457,1.0181882495894903
0.9536548,0.1563671,0.3173256,1.0171547001025998
0.9542091,0.1572626,0.3154833,1.0172395216764143
0.9520733,0.1569653,0.3159696,1.015341549480341
0.9497842,0.1569096,0.3132941,1.0123555908062196
0.9500486,0.1580599,0.3119202,1.0123583780055412
0.9510004,0.1581309,0.3163806,1.0146446798713973
0.9528099,0.1566492,0.3211037,1.0175918944018472
0.9531071,0.1548842,0.3224684,1.0180314968008652
0.9536096,0.155348,0.317832,1.0171142760477605
0.9545073,0.155897,0.3135798,1.016720389945205
0.9541263,0.153795,0.317106,1.0171362315897954
0.9545073,0.1512024,0.3191524,1.0177448628928616
0.9557329,0.1493211,0.3157136,1.0175447136477984
0.9568396,0.1497843,0.3150497,1.018446694788068
0.956205,0.1517551,0.3183922,1.0191816351474599
0.9558897,0.1522163,0.3210684,1.0197940174517304
0.9568523,0.1526535,0.320197,1.0204878901224357
0.9567303,0.1513153,0.3165929,1.0190486991712369
0.9564544,0.1496589,0.3113529,1.0169284310938405
0.9532667,0.1536805,0.3054505,1.0127364441745887
0.9490704,0.1570778,0.303977,1.0088657373198873
0.950019,0.1556797,0.3060776,1.0101761067135027
0.9525087,0.1558866,0.3092165,1.0135029844590986
0.9546598,0.1576092,0.3154876,1.0177172590726955
0.9582072,0.1570683,0.3149926,1.020809398003119
0.9602854,0.1564675,0.3078507,1.0204911471933011
0.9579027,0.1573029,0.3068617,1.0180795096369388
0.9536116,0.1570926,0.3067714,1.0139831657810103
0.951906,0.1577717,0.3105924,1.0136491410220057
0.9515825,0.1596515,0.3184641,1.0160793466788456
0.95277,0.1587995,0.315507,1.0161361233364603
0.9549933,0.1567451,0.3138235,1.0173821398919631
0.9529835,0.1548163,0.3186356,1.016697734631734
0.9501029,0.1536345,0.3180499,1.0136344602807612
0.9499138,0.1545473,0.3177289,1.0134953128963844
0.9497766,0.1561112,0.3173343,1.0134827845747998
0.950184,0.1573969,0.3150318,1.0133451795892898
0.9500631,0.1571493,0.3152882,1.0132731347131139
0.9500943,0.1565663,0.3146913,1.0130265541849681
0.9526078,0.1571529,0.3125882,1.0148251265013546
0.9558501,0.1569669,0.3102606,1.0171281439808753
0.9577623,0.1569727,0.3096577,1.0187428247677968
0.9557782,0.1583438,0.3106517,1.0173933385404927
0.9528561,0.1603201,0.3109904,1.0150627126751233
0.9526768,0.1617516,0.3130828,1.0157644928902763
0.9526185,0.1611779,0.3136561,1.015795486826886
0.9535895,0.1601982,0.3144007,1.0167812930783
0.9564832,0.1587121,0.3189469,1.0206746629500802
0.9591361,0.1566309,0.3186952,1.022761911522452
0.9590267,0.1591435,0.3159862,1.0222065072653275
0.9572188,0.1622245,0.3131911,1.0201339542397851
0.9574034,0.1583149,0.3068642,1.0177674170139315
0.9552661,0.1560958,0.3062683,1.0152337130787865
0.9528205,0.1611283,0.3080572,1.0142625265447698
0.9547114,0.1647939,0.3055313,1.0158642931252482
0.9543336,0.1637819,0.3071021,1.0158192903666379
0.9536665,0.1616343,0.3098922,1.015696123739566
0.954486,0.1607534,0.3110821,1.0166893590217072
0.9529736,0.161394,0.3150194,1.016584442094861
0.9530873,0.1630337,0.3162969,1.0173490638451435
0.9555072,0.1646197,0.3143936,1.0192825862344996
0.9577155,0.165236,0.3134698,1.0211685610849415
0.9572274,0.1670229,0.3122067,1.0206145050703817
0.9552365,0.1687341,0.3124363,1.0190998032542005
0.9553721,0.1671495,0.3147569,1.0196797099610593
0.9537714,0.1659864,0.3144373,1.0178910472512321
0.9521578,0.1665542,0.3090535,1.0148196113106653
0.9538415,0.1649989,0.3035256,1.0144782077397325
0.9545451,0.1629307,0.3060589,1.0155662515098216
0.9541614,0.1629428,0.3137245,1.0175447878211799
0.9541941,0.1624444,0.318155,1.0188705352453618
0.955119,0.1612055,0.3190822,1.0198298719630103
0.9561161,0.1603754,0.3176914,1.0201990449114968
0.9563536,0.1574685,0.3161122,1.0194780329727806
0.9571766,0.1544517,0.3117211,1.0184362598639447
0.9565763,0.1554281,0.3040972,1.015712173324284
0.9540022,0.1571384,0.3050968,1.0138524210799322
0.9521233,0.1566985,0.308212,1.0129599376328464
0.9526042,0.1560305,0.3075471,1.0131068539430084
0.9542449,0.1556052,0.3117911,1.0158789285551009
0.9543807,0.1561586,0.3087644,1.015166726993064
0.9549902,0.1575309,0.3026267,1.01410314372047
0.9565304,0.1571556,0.3078476,1.0170636329951435
0.9583109,0.1576339,0.3106603,1.0196656557343244
0.9613664,0.1598744,0.3106134,1.0228713814961683
0.9618085,0.1590504,0.3112524,1.023352664978291
0.9605023,0.1550728,0.3093337,1.0209307418041735
0.9607481,0.1518912,0.3133217,1.021899376642309
0.9586052,0.1541157,0.3170556,1.0213715445149674
0.9561993,0.1581028,0.3147236,1.0190017375281015
0.9586122,0.1570742,0.3127976,1.0205155524832732
0.9604903,0.1572863,0.3089711,1.0211482444762807
0.9577583,0.1589105,0.3084575,1.0186753837878826
0.9559919,0.1562309,0.3160995,1.0189443070554298
0.9573568,0.1548557,0.317375,1.02041129989516
0.9582464,0.1556921,0.310839,1.0193611121856523
0.9590171,0.1558197,0.3095421,1.01971068871171
0.9593706,0.1564382,0.3088542,1.0199292992267848
0.9577904,0.157282,0.3088862,1.018582722417085
0.9565838,0.1584367,0.3136503,1.0190835417272814
0.9544606,0.1597835,0.3120033,1.016794897231246
0.9514308,0.159638,0.3108617,1.0135777497358207
0.9517158,0.1562177,0.3149056,1.0145602351138596
0.9518703,0.1545543,0.314622,1.014362411840354
0.9510541,0.1579843,0.3154409,1.0143795648405531
0.9536744,0.1585058,0.3153578,1.0168920748387413
0.9557751,0.1553021,0.3136828,1.0178515034425504
0.9561381,0.1534741,0.3173837,1.0190617148475896
0.9583312,0.1537815,0.3220887,1.0226380441306593
0.9598321,0.154828,0.3236515,1.0246949122673832
0.9563809,0.1545972,0.321523,1.0207554847570743
0.9488244,0.1575115,0.3218058,1.0142172289905402
0.9459184,0.1606038,0.3228682,1.0123236017224138
0.9505668,0.1557703,0.3190238,1.0147008488174087
0.9544719,0.1506311,0.3159892,1.0166393218312284
0.9545849,0.1513177,0.3118776,1.0155771831934095
0.9538772,0.1536308,0.3095358,1.0145425308335378
0.9541742,0.1547761,0.3120609,1.0157686992547368
0.9545237,0.155457,0.3137659,1.0167258296677133
0.9546662,0.1574587,0.314905,1.017519510698999
0.9552496,0.1588447,0.3109624,1.017069835966051
0.9548873,0.1569915,0.3086712,1.015743076020201
0.9554065,0.1535892,0.3121213,1.0167649327708839
0.9559558,0.1524627,0.3095175,1.0163156248189733
0.9542486,0.1545047,0.3103672,1.015278233667939
0.9544479,0.1561874,0.3144709,1.0169843876284337
0.957015,0.1547917,0.3104471,1.0179467483676639
0.9588413,0.1533499,0.3086843,1.0189106081900363
0.9578753,0.1542669,0.3085846,1.0181099263551359
0.955983,0.1534863,0.3076534,1.015929207724756
0.9571289,0.1519164,0.3099984,1.0174838238550674
0.9573664,0.1524696,0.3101163,1.0178258801478817
0.9563719,0.152814,0.3114752,1.0173574248614152
0.9571299,0.1536862,0.3145135,1.0191348464392236
0.9562042,0.1541892,0.3148165,1.0184351772039937
0.9555783,0.1547606,0.3153777,1.0181079630375847
0.9558359,0.1572514,0.3133685,1.0181110387983328
0.9545722,0.1570464,0.3080205,1.0152577432288068
0.9553888,0.1554405,0.304615,1.0147511056563032
0.9558733,0.1547595,0.308485,1.0162712549896018
0.9533174,0.153069,0.3164386,1.0160598267197263
0.9522384,0.1520865,0.3185934,1.0155737434772376
0.9533774,0.1519867,0.3172959,1.016220995632574
0.9559347,0.1535569,0.314242,1.0179090857074122
0.95948,0.1544303,0.3084373,1.0195999980332384
0.9605615,0.1520978,0.3045765,1.0191069523849496
0.959555,0.1507318,0.3019302,1.017166514995593
0.9604686,0.1479362,0.3026357,1.0178277937700906
0.9615226,0.1465973,0.3073337,1.0200345493333742
0.959569,0.1515645,0.3117811,1.0202705120400473
0.9565882,0.154015,0.3146597,1.0187209291107795
0.9555696,0.1538126,0.3095067,1.0161525346658395
0.9588896,0.1551142,0.2997796,1.0165616009893155
0.9616561,0.1551617,0.2983559,1.0187609390229437
0.9559066,0.1522148,0.3058003,1.0151061997361115
0.9502087,0.1484763,0.3152057,1.012075302796126
0.9528535,0.1501477,0.3171958,1.0154246893862588
0.95391,0.1529531,0.3140884,1.0158693134031413
0.9518047,0.1533871,0.3154006,1.014365480420573
0.9535593,0.1549279,0.3154388,1.0162576589430163
0.9565342,0.15408,0.3128432,1.0181204201644716
0.960772,0.1537092,0.3123949,1.0219099410880832
0.9630642,0.1547703,0.3121721,1.0241571749991014
0.9559729,0.1537529,0.3127544,1.0175163165827759
0.9497846,0.15425,0.3120594,1.0115655777187755
0.9510948,0.1545458,0.3094483,1.012039511707705
0.9506453,0.1547278,0.3086346,1.0113963094762064
0.9504354,0.1561262,0.3115403,1.0123044000811663
0.9548521,0.1553311,0.3162793,1.0177931416108628
0.9566545,0.1544341,0.3148449,1.0189038397557788
0.9551499,0.1545018,0.3113819,1.0164353522584995
0.9554647,0.1556936,0.3120161,1.0171073378391584
0.9558007,0.1577391,0.3108226,1.0173727391964362
0.9553524,0.1570894,0.3108798,1.0168684958371756
0.9558358,0.1564235,0.3123074,1.0176572605787522
0.9567959,0.1573269,0.3106682,1.0181968759585054
0.9589523,0.1570602,0.3103232,1.0200774032187803
0.9604557,0.1576607,0.3123825,1.02221077782091
0.9596464,0.1583102,0.3176577,1.0231763029049734
0.9594672,0.1556039,0.3223294,1.0240537699141632
0.9595907,0.1531581,0.3195237,1.022920871809638
0.9575262,0.154576,0.3164266,1.020233285405843
0.9543519,0.1573819,0.3183448,1.0182828797383663
0.9524466,0.1588257,0.3187,1.0168332305899774
0.9515789,0.1580707,0.3169586,1.015357820296697
0.9504839,0.1552993,0.3169209,1.0138916971730807
0.9506856,0.1533969,0.3162103,1.0135692738057227
0.9526276,0.1540651,0.3153801,1.015233966529775
0.9532893,0.1548872,0.3139825,1.015546918918363
0.952704,0.155761,0.3099508,1.013891463203848
0.953629,0.1578007,0.3103271,1.0151907404797877
0.9546184,0.1590979,0.3138431,1.017401554363163
0.9539332,0.1597362,0.3130237,1.0166061382926872
0.9531314,0.1601542,0.31037,1.0151051031019398
0.9528187,0.1594578,0.309446,1.0144195837849987
0.9535166,0.1592483,0.3102687,1.0152933535329285
0.9549791,0.1582755,0.311923,1.017021225573026
0.9563632,0.1561052,0.3134367,1.018450768907447
0.9586383,0.1569835,0.3123459,1.020387755094087
0.9589156,0.1585856,0.312589,1.0209703244324588
0.956156,0.1590281,0.316206,1.0195638613454334
0.9564123,0.1598935,0.3143466,1.0193646079127427
0.9578026,0.1579749,0.3080199,1.0184390744628664
0.9559456,0.1560207,0.3042378,1.0152512437503782
0.9541725,0.1580102,0.3054037,1.014240505518282
0.952389,0.1619912,0.3078004,1.0139166841701541
0.9523686,0.1664388,0.3108403,1.015543951050613
0.9554212,0.165355,0.3175426,1.020296647181201
0.9558353,0.1589531,0.3160328,1.019197693973814
0.9554099,0.1577883,0.3114124,1.0171936430732647
0.9559503,0.1623364,0.314367,1.019323645131442
0.956148,0.1651159,0.3137909,1.0197779107529343
0.957807,0.1637186,0.3135488,1.0210342203943998
0.9588124,0.1612092,0.3142866,1.0218051142453537
0.9598615,0.1600987,0.311266,1.0216908611120783
0.9599995,0.1595095,0.3110957,1.0216764924128332
0.9572769,0.1608655,0.3110522,1.0193185191532135
0.9566172,0.1635817,0.3119989,1.0194207931526313
0.9566205,0.1641845,0.3131887,1.019885529296396
0.9547458,0.1639774,0.3123479,1.0178356158844166
0.9520437,0.1637698,0.3145571,1.015949764142962
0.9503671,0.1636313,0.3145634,1.014358398063357
0.9519205,0.163237,0.309012,1.0140450545381354
0.9525427,0.1625284,0.3041355,1.0130407091968714
0.9525452,0.165155,0.3075001,1.0144825496616736
0.953307,0.1677999,0.3132075,1.0173740613684132
0.9523966,0.1666582,0.3112651,1.015736285556842
0.9527981,0.1660508,0.3121263,1.0162774791836824
0.9530591,0.1660696,0.3134651,1.0169371313188345
0.9523951,0.1648331,0.3098584,1.015006702150375
0.9532432,0.1640962,0.3131633,1.0166963232290998
0.9535858,0.1639859,0.3143131,1.0173544014708247
0.954328,0.1641876,0.3103972,1.0168804852811366
0.9543189,0.1666301,0.3122429,1.0178338674477432
0.9528399,0.1685108,0.3114646,1.0165185496594786
0.9527465,0.1650789,0.3098817,1.0153834765655536
0.9532313,0.1608294,0.3121692,1.0158570847479924
0.9549253,0.1605654,0.3108048,1.0169873155355922
0.9548659,0.1621875,0.3106904,1.0171539690682134
0.9502891,0.1646735,0.3118648,1.01362043618906
0.9490162,0.167204,0.3113641,1.0126877743150897
0.9524821,0.1649859,0.3158246,1.0169501836296506
0.953455,0.1602602,0.319775,1.018339736705801
0.9526546,0.1617482,0.3188659,1.0175405295550688
0.9540394,0.1650949,0.3184235,1.0192355116020144
0.9563243,0.1640167,0.3191888,1.021439736203179
0.9574894,0.1633827,0.3205236,1.022846633630189
0.9570327,0.1639711,0.3209703,1.0226534329803962
0.9565822,0.1628808,0.3194379,1.0215773256694227
0.9572014,0.1611474,0.3158053,1.0207526596569858
0.9569374,0.1608356,0.3117021,1.0191935424101402
0.95676,0.161444,0.3105029,1.0187570434821103
0.9571766,0.1626658,0.3125253,1.0199604253191836
0.9564344,0.1663558,0.3153379,1.020724744910894
0.955176,0.1692677,0.3151417,1.019964232862202
0.95372,0.1678756,0.3139084,1.0179894592115972
0.9530878,0.1656076,0.3131834,1.0168018851881422
0.9511409,0.1651091,0.3072759,1.0130885969531145
0.9476106,0.1651642,0.3025535,1.0083569222037652
0.9500443,0.1655027,0.309469,1.0127913791254248
0.9539754,0.1668348,0.3156206,1.0185869022526062
0.9521916,0.1694336,0.3115191,1.0160810684115367
0.9506637,0.170955,0.309191,1.0141923668632544
0.9499614,0.1665514,0.307747,1.0123607293553618
0.9495665,0.1618191,0.3038113,1.0100313188484553
0.951457,0.1638911,0.306016,1.0128062538137341
0.9519104,0.1648426,0.3078702,1.0139480028339523
0.9529636,0.1630923,0.3064719,1.014230618120879
0.9551569,0.163738,0.3080803,1.016881658557032
0.9550274,0.1623718,0.3109377,1.0174105314312851
0.9555301,0.1601487,0.3139605,1.0184579390814086
0.9559298,0.1611849,0.3136385,1.0188971798951552
0.9552268,0.1613013,0.3130901,1.018087304477342
0.9553108,0.15933,0.3138645,1.0180941497999534
0.9538411,0.1569044,0.3080342,1.0145525630336805
0.9524447,0.1557678,0.3038397,1.0117969546163994
0.9544707,0.1606464,0.3070612,1.0154349627311885
0.9564641,0.1661824,0.3104252,1.0192173318059352
0.9555567,0.1634146,0.311797,1.018337030465381
0.9547387,0.1588491,0.3115862,1.0167816785716293
0.9541667,0.1572927,0.3135591,1.0166092632152188
0.9521346,0.1561343,0.3163376,1.0153854900122465
0.952929,0.1571646,0.3157935,1.0161200348267965
0.9561478,0.157385,0.3154601,1.0190700311371392
0.9573438,0.156638,0.3145816,1.0198059607106638
0.9576062,0.1593433,0.3134141,1.0201119152387839
0.9584169,0.1609794,0.3169181,1.0222105475573906
0.9589657,0.1603538,0.3184659,1.023107562484874
0.9540275,0.1592527,0.3151751,1.017283262849414
0.9480277,0.157121,0.3167473,1.0118163769506698
0.9533594,0.1550957,0.3161181,1.016306781869756
0.959195,0.1530991,0.3076872,1.018904213108205
0.9564083,0.1532141,0.3047825,1.015422950820962
0.9564283,0.1531697,0.309661,1.016910018123521
0.9577266,0.1521729,0.3150557,1.019635682949778
0.9564058,0.1541809,0.3145307,1.0185349112528936
0.9570775,0.1548376,0.3131779,1.0188485758091925
0.9571295,0.1555924,0.3152954,1.0196651724802461
0.9566338,0.158393,0.3130165,1.0189287997812655
0.9572034,0.159551,0.3135858,1.0198190646061682
0.9570122,0.1610814,0.3150766,1.0203395671257487
0.9577947,0.1590735,0.3118627,1.0197712534689483
0.9587444,0.155309,0.310897,1.0197885342664725
0.9582877,0.157007,0.3064184,1.018262613415051
0.9580483,0.1576831,0.3055023,1.0178664747715145
0.9575215,0.1562652,0.3100882,1.0185386234564353
0.9566627,0.1569936,0.3134575,1.0188749267297237
0.9568083,0.1562321,0.3220539,1.0215719781417802
0.9568155,0.1547637,0.3216459,1.0212266099474445
0.9550674,0.1548152,0.3122394,1.0166685436297123
0.953544,0.1543975,0.3103159,1.0145840062484033
0.954461,0.155624,0.31077,1.0157719344405023
0.9562553,0.158392,0.3116083,1.0181414229226606
0.9573013,0.1596862,0.3089233,1.0185082556047447
0.9575085,0.1608936,0.3052584,1.0177877818404828
0.9584305,0.1588082,0.3089432,1.019438555550912
0.9603653,0.1536014,0.3088302,1.0204268675206911
0.9598739,0.1534721,0.3041484,1.0185371071307023
0.9582197,0.1551048,0.3024309,1.016713795384886
0.9583991,0.155006,0.3027833,1.016972674989697
0.9582948,0.1579979,0.3070428,1.0186105934768643
0.9582244,0.1609978,0.3108469,1.0201666959864009
0.958732,0.161007,0.3112515,1.020768239183239
0.9590289,0.1594505,0.3110797,1.0207504458669365
0.9593466,0.1575387,0.3090582,1.0201378886780406
0.9563443,0.1584036,0.3071808,1.016880604851961
0.9530443,0.1595704,0.3062978,1.013693490461239
0.9558026,0.1588477,0.305223,1.0158505213322726
0.9580957,0.1591877,0.3043016,1.0177856149270041
0.9555373,0.1598206,0.3000889,1.0142226105638052
0.9538417,0.1593526,0.2954419,1.011184036692263
0.9532122,0.1568053,0.2948953,1.0100319986510427
0.9514579,0.1537028,0.2971788,1.0085692466904244
0.9510563,0.1543252,0.303253,1.010092438905336
0.9515914,0.1572326,0.3060383,1.0118832561731663
0.9514982,0.1590208,0.3032149,1.0112248587816115
0.9528114,0.1584136,0.3046806,1.0128053616817398
0.9559537,0.1565652,0.3074044,1.016296021606938
0.9586974,0.1551414,0.3084973,1.0189897658308498
0.958967,0.1536172,0.3091114,1.0191986110836297
0.9587575,0.1538669,0.3075707,1.0185728752624184
0.9598001,0.1549255,0.3084849,1.0199907235059886
0.9581706,0.1547078,0.3089647,1.0185698738580922
0.955937,0.1557938,0.3085308,1.0165030795015233
0.956334,0.1559626,0.3100012,1.0173493972850232
0.9537442,0.1551844,0.3069888,1.013879835267691
0.9499269,0.1567546,0.3043083,1.009721080998936
0.9521791,0.1576158,0.3054166,1.0123077982718545
0.957648,0.1585614,0.3038261,1.0171242345530707
0.9602508,0.1602,0.3013442,1.0190946794946385
0.9576591,0.1589421,0.3021264,1.0166877123985418
0.9544335,0.1578864,0.3052612,1.0144238864757917
0.9580905,0.1595167,0.3061595,1.0183892297198502
0.9616283,0.1610845,0.3051189,1.0216529482355297
0.9583948,0.1612913,0.3054247,1.01873437337356
0.9557512,0.1610558,0.3074571,1.016823089507457
0.9538187,0.1607473,0.3108958,1.0160049238978224
0.9531505,0.1591438,0.3112757,1.0152414422880796
0.9550433,0.1569147,0.3103603,1.0163923670350294
0.9529848,0.1566245,0.3113657,1.0147215687900697
0.9520232,0.1586636,0.3092687,1.0134936803467942
0.9534719,0.1613368,0.3073899,1.0147052664423597
0.952355,0.1631852,0.3091609,1.0144899790598476
0.9528646,0.163018,0.3111158,1.0155387020034243
0.9529842,0.1627832,0.3131204,1.0162291279765798
0.9524082,0.1640864,0.3127921,1.0157975309650098
0.9531443,0.1620198,0.3110834,1.0156315050105968
0.9525528,0.1579838,0.3120657,1.0147417006148756
0.9527983,0.1573254,0.3129703,1.0151484081897286
0.9529375,0.1580313,0.313518,1.0155576335245282
0.9528826,0.1604395,0.3150837,1.0163679552940952
0.9548007,0.1627731,0.3155761,1.0186892233136218
0.9556086,0.1616228,0.3150819,1.0191105580757223
0.9539841,0.1607411,0.3142636,1.0171946591321546
0.9519284,0.1611023,0.3131515,1.014980537618382
0.9524229,0.1613976,0.3111506,1.0148759833647312
0.9525373,0.1621786,0.3089883,1.0144471281077887
0.9507694,0.1637279,0.3099457,1.0133289762773292
0.9522972,0.1654857,0.3131297,1.0160244500278623
0.953496,0.1660877,0.3151749,1.0178776761955732
0.9523953,0.1660139,0.3141496,1.016517286442026
0.9532042,0.1651668,0.3097977,1.0158016212062126
0.9548375,0.1646704,0.3075633,1.0165757106823377
0.9566739,0.1648213,0.3114098,1.0194935386803292
0.9566651,0.1634865,0.3156467,1.0205727747011235
0.9548863,0.163598,0.3157087,1.0189426552988052
0.9556635,0.1631733,0.3145885,1.0192566778772607
0.9568479,0.1572613,0.3135746,1.019126120741324
0.9559909,0.1532105,0.3120273,1.0172281426201057
0.952689,0.158434,0.3121769,1.0149739306852221
0.9487019,0.1650758,0.3129877,1.0125446237872877
0.9508198,0.1625132,0.3122826,1.0138980493664242
0.9555683,0.1582934,0.3114938,1.0174458039064733
0.955798,0.1591929,0.308312,1.0168325749888278
0.9551713,0.1583927,0.3039534,1.0148044782757613
0.9542354,0.159241,0.305276,1.0144537105605953
0.9535598,0.1633392,0.3079374,1.0152740658321968
0.9552912,0.164564,0.3083096,1.0172105958677387
0.9540421,0.1649566,0.3101604,1.0166643901426518
0.951535,0.165262,0.3093314,1.0141086233214665
0.9516367,0.1650199,0.3072128,1.0135204391953523
0.9519818,0.1634202,0.3092828,1.014214651676419
0.9538763,0.1607667,0.3114234,1.0162236277503784
0.9566571,0.1609071,0.313697,1.0195536815782777
0.9586826,0.1609707,0.3147567,1.021790425672574
0.9579006,0.1591855,0.3122777,1.0200151689106884
0.9540117,0.1582502,0.3122552,1.016210981767059
0.9536833,0.1598067,0.3130422,1.0163884282323465
0.9548412,0.1621477,0.313019,1.017838144399064
0.9544771,0.1614619,0.3133665,1.0174944928097989
0.9551715,0.1623375,0.3085488,1.0168128737874733
0.9539962,0.1649901,0.3037753,1.0146969575210818
0.9536394,0.1638528,0.3065096,1.0149994976315801
0.9551577,0.1633967,0.3109307,1.0176947546502684
0.9556028,0.1638202,0.3140947,1.0191512399364335
0.9576495,0.1610167,0.3169765,1.0215150728605966
0.9583217,0.1590177,0.3154257,1.0213522809612117
0.9573201,0.1608332,0.3110424,1.0193510026894612
0.9562102,0.1638128,0.3074008,1.0176776659967144
0.95332,0.1651937,0.3027112,1.0137761348173127
0.9545349,0.1654608,0.3043198,1.0154431014718106
0.9566863,0.1651619,0.3095414,1.0189911717641424
0.9540999,0.1641933,0.3075162,1.0157914511391302
0.9537108,0.1635718,0.30636,1.0149760949854336
0.9551302,0.162899,0.3063068,1.016185828910874
0.9565629,0.162843,0.3076057,1.01791536533147
0.9585626,0.1651276,0.3139536,1.0220940491723256
0.9551025,0.1675492,0.3129175,1.0189263377365116
0.9514691,0.1668311,0.3092296,1.014272650571916
0.955509,0.1650794,0.3082898,1.0174926329804064
0.9580391,0.1658881,0.3034532,1.018548783044121
0.9531817,0.1681822,0.3019614,1.0139138487572255
0.9479231,0.1709317,0.3048832,1.0103116426235719
0.9465714,0.1715425,0.3063295,1.0095850668341226
0.9480279,0.1692285,0.305729,1.0103788427276474
0.949334,0.1692648,0.3059723,1.011684073435146
0.9491763,0.1693948,0.307706,1.0120836078035895
0.9524162,0.1672969,0.3070177,1.0145662811691212
0.9583397,0.1664167,0.307515,1.0201347822028126
0.9588124,0.1665187,0.3086761,1.0209459488898813
0.9551189,0.1678691,0.3063393,1.0169935666446026
0.9533417,0.1683853,0.3049229,1.0149837344309462
0.9540645,0.1676112,0.305498,1.0157074443606733
0.9544475,0.1673816,0.3058545,1.0161366076689984
0.9529887,0.1662602,0.3054172,1.0144503844385737
0.9524581,0.1665469,0.3059674,1.0141648544580808
0.9534643,0.1670412,0.3085018,1.0159578212087204
0.9553998,0.1663125,0.3103101,1.018204784735517
0.9574324,0.1668536,0.3104754,1.0202508997339232
0.955302,0.1664928,0.3113361,1.0184556597216443
0.9522393,0.1656307,0.3149427,1.016554040634471
0.9537474,0.1652014,0.3163595,1.0183363583850722
0.9556837,0.1648219,0.3137183,1.0192726646585741
0.9556428,0.1643286,0.3109049,1.0182921519946082
0.9557505,0.161727,0.3077907,1.0170298696625089
0.9563876,0.1603426,0.3104275,1.0182103041929846
0.9563406,0.1615104,0.3164743,1.0202102406254359
0.9526356,0.1621143,0.3154869,1.0165272336359021
0.9483486,0.1627991,0.3146121,1.0123484516455685
0.9505165,0.1633879,0.3159314,1.0148841668607407
0.9555455,0.1632503,0.3146983,1.019192269909476
0.9576319,0.1631216,0.3142822,1.0209999086782573
0.9569106,0.1635323,0.3130891,1.0200223007731055
0.9535317,0.1648854,0.3128795,1.0170071187353116
0.9512361,0.1653745,0.3156213,1.0157832683240802
0.9519778,0.1638198,0.3165011,1.0164996826689567
0.9521628,0.1633438,0.3152594,1.0162104526084348
0.9513451,0.1654392,0.30973,1.0140810130806366
0.9509993,0.1663744,0.3031413,1.0119163786309322
0.9517993,0.1656889,0.3048098,1.0130566288415175
0.9524219,0.1653289,0.3067188,1.0141585394050874
0.9528628,0.1647554,0.3019378,1.0130440723491945
0.9546365,0.1645533,0.300365,1.014212881449521
0.9568203,0.1636066,0.3028122,1.016841892589251
0.9584812,0.1621663,0.3053217,1.0189236772693135
0.9552253,0.1611439,0.3082667,1.016587964022883
0.9512911,0.1595865,0.307094,1.012289154716902
0.9556262,0.1604723,0.3056263,1.016061134206707
0.9586148,0.1609952,0.3063952,1.0191858553694315
0.956022,0.1595403,0.3052772,1.0161817458741966
0.954956,0.1600915,0.3084267,1.0162171419441517
0.9543549,0.1597128,0.312145,1.0167280632808606
0.9555203,0.1605368,0.3108234,1.0175471949024724
0.9575647,0.1637246,0.3107648,1.0199562050648499
0.9552528,0.1668327,0.3098169,1.0180017550194793
0.952872,0.1700199,0.3089642,1.0160367570426034
0.953854,0.1653941,0.3099673,1.016500068224346
0.9542922,0.1589385,0.3079758,1.0152754026118875
0.9539382,0.1618868,0.3067232,1.015029333000638
0.9536115,0.165545,0.3069183,1.0153713029390479
0.9530127,0.166952,0.3049527,1.0144468078231506
0.9542513,0.1665413,0.3042807,1.0153414659856408
0.956127,0.1614608,0.3077273,1.0173222307759375
0.9573443,0.1590114,0.3108863,1.0190402472916074
0.9573866,0.1622956,0.3088976,1.0189929788397367
0.9563126,0.1649922,0.3058187,1.0174877356751235
0.9568483,0.1628133,0.3049217,1.017371162850938
0.9553954,0.1595978,0.3047915,1.0154554084637346
0.9531011,0.15969,0.3073348,1.014079524599649
0.9546091,0.1600461,0.3092127,1.0161229166637813
0.9552751,0.161738,0.308471,1.0167910577719546
0.9554936,0.1653222,0.3096712,1.0179369831002507
0.9559329,0.1666078,0.3074211,1.017877006837496
0.9551897,0.165635,0.3028975,1.0156619574038106
0.9553562,0.1604081,0.304581,1.0154830441642293
0.9538359,0.1546606,0.3066039,1.0137695876363524
0.9520326,0.1559157,0.3078168,1.0126336747963156
0.953315,0.158171,0.3092482,1.0146240701211657
0.9557284,0.157364,0.3078287,1.0163359245870678
0.9575978,0.1581743,0.3082922,1.018359826547655
0.9572365,0.160385,0.3087249,1.0184969951046787
0.9564457,0.1616049,0.3073334,1.0175255964879015
0.9571591,0.1613511,0.3059777,1.0177475487965126
0.9565254,0.1606713,0.3039707,1.0164419776590004
0.953655,0.1616416,0.3072992,1.0148983516570516
0.9503567,0.1627278,0.3116747,1.0133110641593825
0.949648,0.1617474,0.3090677,1.0116898677430994
0.9529755,0.1583934,0.3062384,1.0134262333284894
0.954895,0.1554297,0.3054693,1.014541446127057
0.9522632,0.1570775,0.3050095,1.01218048695415
0.9504974,0.1579156,0.3072095,1.011316133076285
0.9521975,0.1574857,0.3109907,1.0140005129176366
0.9552873,0.1617242,0.3132059,1.0182467668506194
0.9573989,0.1639069,0.3124199,1.0203353955954042
0.9556201,0.1633742,0.3139328,1.0190459791714455
0.9534857,0.1637007,0.3172375,1.0181220608017636
0.9568403,0.1631918,0.3139729,1.0201734682031973
0.9594862,0.1654021,0.3111897,1.0221597977131267
0.9562276,0.1655191,0.311489,1.01921204495805
0.9545775,0.1598788,0.3103457,1.0164122626691297
0.9559015,0.1574565,0.3126803,1.0179927293957407
0.9556414,0.1605954,0.3118255,1.0179766747550603
0.9555594,0.164788,0.3064185,1.0169273076354128
0.9563608,0.1657664,0.3035304,1.0169735408897127
0.9561454,0.1630562,0.3038275,1.016421418534581
0.9544713,0.1603911,0.3071848,1.0154325525774424
0.9539317,0.1581592,0.3068725,1.0144805331132678
0.9562006,0.1563018,0.311551,1.0177494120482704
0.9574015,0.1568334,0.3199662,1.021563858356515
0.9556829,0.159029,0.3147862,1.0186807055715987
0.9532656,0.1620054,0.3119085,1.015996046323395
0.9522613,0.1647426,0.3161007,1.0167897325764752
0.9529949,0.1633301,0.3154439,1.0170451588003504
0.9538442,0.1604046,0.3160041,1.017549499922048
0.9543089,0.1611879,0.3170977,1.0184488043445827
0.9542875,0.1615947,0.315932,1.0181308895954093
0.9541926,0.16172,0.3130055,1.0171574702694808
0.9551103,0.1640414,0.3099975,1.0174692703400432
0.9558775,0.1639663,0.3108415,1.0184346717704529
0.9545104,0.162748,0.3117487,1.0172336345028363
0.9500404,0.1624306,0.3108172,1.01270321084924
0.9462223,0.1622262,0.3107901,1.0090810013283076
0.9499769,0.1629903,0.3103596,1.0125932202715264
0.9569624,0.1632852,0.3083444,1.0185849795496495
0.9572752,0.1640232,0.3079266,1.0188710466299649
0.9536107,0.1642736,0.3086536,1.0156900253543941
0.9512248,0.1634176,0.3081739,1.0131658722864731
0.950936,0.1641248,0.3096046,1.0134452300998806
0.9527805,0.16414,0.3146668,1.0167338962592376
0.9530349,0.1646887,0.3198211,1.0186674749548599
0.9525164,0.1667429,0.318963,1.0182475545457352
0.9530303,0.1666793,0.3164754,1.0179417569643856
0.9525894,0.1656952,0.3182879,1.0179335202172144
0.9528262,0.1653727,0.3156986,1.0172961728787195
0.952893,0.1669208,0.3121589,1.0165189628191154
0.9523744,0.1688951,0.3149375,1.01721589718487
0.9521165,0.1678914,0.31668,1.0173492881828787
0.9511535,0.1667603,0.3174532,1.0165030803733848
0.9525327,0.1667294,0.3167873,1.017581166706096
0.9553491,0.1664652,0.3139287,1.0192908291383473
0.9568114,0.1664193,0.3131726,1.0204217343692803
0.9571728,0.1649372,0.3102236,1.0196189145953698
0.9555143,0.1631916,0.3071117,1.016836600487974
0.9534185,0.1638092,0.308276,1.0153198423762286
0.9517914,0.1646163,0.3091282,1.0141822515578203
0.9499042,0.1654235,0.3100852,1.0128355023343771
0.948561,0.167225,0.3124677,1.0126046784847926
0.9498351,0.1670267,0.3135196,1.014090319098383
0.9528744,0.1660836,0.3144392,1.0170670552431438
0.9531323,0.1669606,0.3178748,1.0185192250177166
0.9532058,0.166764,0.31692,1.0182582262126045
0.9541347,0.1661706,0.3077532,1.016217361669584
0.9527988,0.1658973,0.3039408,1.0137689467197986
0.9527832,0.1639802,0.3111125,1.015616226657752
0.9530873,0.1634421,0.318208,1.0180103401919354
0.9532949,0.1643605,0.3187971,1.0185367599132933
0.9550594,0.1650405,0.3165019,1.0195833839722086
0.9549188,0.1674954,0.3153327,1.0194897426182816
0.9557221,0.16985,0.313479,1.0200602131097016
0.9577135,0.1705356,0.3094199,1.0208027299462028
0.9602038,0.1704347,0.3046777,1.0216985002317562
0.9625569,0.1682499,0.3029412,1.023033325578918
0.9556523,0.1662633,0.3048216,1.0167748085238637
0.9483367,0.169051,0.3052871,1.0105052946888997
0.9525986,0.1716219,0.3065943,1.015331588238079
0.9563032,0.1670208,0.3122909,1.019773192521597
0.9547264,0.1627529,0.3170367,1.0190698084342702
0.9535754,0.1649471,0.3167427,1.018253174454595
0.9506809,0.1670994,0.3150127,1.0153567768358371
0.9488026,0.1675535,0.3165988,1.0141673181928366
0.9505464,0.1683498,0.3180048,1.01636960134394
0.9497892,0.1679559,0.3179053,1.0155651079815318
0.947718,0.1665996,0.317778,1.0133645402954259
0.9476951,0.1647356,0.3141545,1.0119075404114843
0.9496188,0.1637765,0.3111889,1.0126387009930542
0.9534775,0.1664761,0.3115551,1.016808839071273
0.9534119,0.1692761,0.311728,1.017262500575353
0.9516907,0.1680954,0.3136014,1.0160300635560002
0.9522741,0.1676139,0.316101,1.0172709684273016
0.9501607,0.1696325,0.3148376,1.0152355663857033
0.9493082,0.1704993,0.3101008,1.0131231791092188
0.9507191,0.1710015,0.3066721,1.0134870976117407
0.9506526,0.171227,0.3056201,1.013144953567736
0.9516531,0.1713939,0.304722,1.013841698186073
0.9516499,0.1721539,0.3054062,1.014173281275769
0.9509813,0.1696796,0.3060327,1.0133176269438622
0.9516606,0.1668391,0.3053266,1.0132707020084661
0.9515137,0.1680575,0.3054739,1.0133784821946588
0.9521753,0.1687608,0.3053817,1.0140887496869393
0.9532124,0.1681787,0.3040371,1.0145622271816845
0.9527556,0.1680062,0.3037815,1.0140278676210286
0.9526244,0.1663999,0.3053079,1.0140981648725038
0.9527187,0.1663776,0.3058506,1.0143465959088196
0.9516886,0.1690998,0.307777,1.014412448395129
0.9501714,0.1698387,0.3110853,1.0141227427051127
0.9500349,0.1695281,0.309895,1.013578314158615
0.95258,0.17074,0.308308,1.015684314570231
0.9569806,0.1727826,0.3077447,1.0199865175663891
0.9590042,0.1736632,0.3049456,1.0211952710482162
0.9551645,0.1696676,0.307062,1.0175526464974725
0.9500698,0.1647587,0.311764,1.0133976740617328
0.9498357,0.1647282,0.3115763,1.0131155055527576
0.9529539,0.1655272,0.3135363,1.0167720496171893
0.9550372,0.1643226,0.3192118,1.020291205251638
0.9541924,0.1636481,0.3213905,1.0200763159399497
0.9523414,0.1651727,0.3159787,1.0168966033146831
0.9514027,0.167525,0.3052768,1.0131266691833405
0.9517555,0.168333,0.3007139,1.0122269411166944
0.9556621,0.166546,0.3048128,1.0168276464260055
0.9586172,0.1625329,0.3078671,1.0198754977842441
0.9557496,0.1602399,0.3079705,1.0168480478038102
0.9529015,0.1623954,0.31186,1.01570182349123
0.9512231,0.1659791,0.3173918,1.0164211736862134
0.9513364,0.166971,0.3155491,1.016115886755428
0.9539885,0.1648708,0.3127919,1.0174061192712083
0.9527071,0.1631266,0.3137223,1.016210011530717
0.9520319,0.1639673,0.3119893,1.0151784756393283
0.9536621,0.1652361,0.3120944,1.016945074343241
0.9522676,0.1652565,0.3132798,1.0160056721741517
0.9527504,0.1651642,0.3118951,1.0160172690785378
0.9537406,0.1642687,0.3126704,1.0170388964657202
0.9543766,0.1625386,0.3127263,1.017374675244676
0.9554831,0.1626556,0.3120856,1.0182348551902602
0.9521674,0.1643322,0.3128721,1.0156361457421699
0.951665,0.1656543,0.3123195,1.0152098745647324
0.9545742,0.1646435,0.3124577,1.0178158967549977
0.954943,0.1630927,0.3123418,1.0178765947154547
0.9574926,0.1640929,0.3108278,1.019966901491421
0.9579033,0.1639635,0.3109673,1.020374158410742
0.9557666,0.1626056,0.3118738,1.0184280249253552
0.9574692,0.1625107,0.3114148,1.0198706654385987
0.9570184,0.1623118,0.3105109,1.0191400087213778
0.9550242,0.1626142,0.3118366,1.0177213104415372
0.9541212,0.1625771,0.3141026,1.0175652416727932
0.9518479,0.1624669,0.3152318,1.0157662162433145
0.9526479,0.1639635,0.3141634,1.0164254486218947
0.953474,0.1658411,0.3107771,1.0164636466739083
0.9522921,0.167108,0.3098161,1.0152690989120174
0.9539702,0.1655573,0.3091618,1.0163903682397675
0.9547187,0.1627422,0.3080958,1.0163148339801846
0.9549996,0.1622119,0.3096565,1.0169680843045272
0.9568931,0.162605,0.3080067,1.018308852017648
0.957178,0.163528,0.3068442,1.0183734548492709
0.9565765,0.1634697,0.3083129,1.0182424993471595
0.9548831,0.1602488,0.3074205,1.0158684838045227
0.9527595,0.1579469,0.3089595,1.0139792210396177
0.9523853,0.161478,0.311489,1.0149572903630428
0.9529175,0.1654598,0.3122391,1.0163276847508877
0.9529306,0.1617892,0.3104837,1.015210619339007
0.9530721,0.1573583,0.3067966,1.0135246499956772
0.955593,0.1567447,0.3082284,1.0162340425284178
0.9578065,0.1550881,0.3089126,1.0182694165311164
0.9565539,0.1564833,0.3051504,1.0161688606743762
0.9538412,0.1597345,0.3026759,1.0133808986499104
0.9521409,0.1598024,0.3010503,1.011306275877224
0.9525842,0.1597083,0.3037493,1.0125152030606848
0.9531585,0.1585498,0.3070145,1.0138575187927246
0.9526212,0.1570284,0.3043793,1.0123200222086344
0.9528652,0.1568745,0.3037259,1.0123295513083177
0.9538444,0.1567486,0.3066421,1.0141097773445091
0.9543382,0.157183,0.3082667,1.0151336137657594
0.9547857,0.1574098,0.3078127,1.0154517400358423
0.9567444,0.1594813,0.3037242,1.0163869940365677
0.9589677,0.1618326,0.3009798,1.0180361879982902
0.9578488,0.1592332,0.3064312,1.018199202502693
0.9559639,0.1565497,0.3120558,1.0177198086835786
0.9564469,0.1577166,0.3090008,1.0174215905099566
0.9537615,0.1588699,0.3066719,1.0143708879191426
0.9499332,0.1582894,0.3093063,1.0114835667643296
0.952191,0.1581076,0.3083812,1.0132939742109395
0.9540594,0.1590964,0.3071217,1.0148225174049943
0.9534684,0.1610984,0.3060369,1.0142550312632075
0.9561909,0.1641623,0.3011545,1.015846607935642
0.9579145,0.1646115,0.3015525,1.0176595921518894
0.9566531,0.1625265,0.3078826,1.018033256983592
0.9564012,0.1604928,0.3127953,1.0189710957212526
0.9552674,0.1578209,0.3136937,1.017765680006582
0.9525675,0.1593293,0.3112782,1.014723994833068
0.9522784,0.162762,0.3107012,1.0148206025855013
0.9535623,0.1606619,0.3092675,1.0152535115177637
0.9544404,0.1595303,0.3061107,1.0149434242482385
0.9559831,0.1604915,0.3055619,1.016380481802691
0.9561518,0.1600076,0.3054171,1.0164193532560317
0.9558744,0.1615823,0.3075255,1.0170430872873086
0.9574739,0.1611315,0.3089043,1.0188922887292602
0.9566467,0.1586069,0.3060934,1.0168688346448918
0.9537233,0.1586939,0.305292,1.0138910652156374
0.9532558,0.1597647,0.3065164,1.013988995536288
0.9568415,0.161841,0.3081159,1.018171681611731
0.9608064,0.161531,0.3080862,1.021840647494706
0.956138,0.1609544,0.3071173,1.0170679573571524
0.9489923,0.1653073,0.3098421,1.011886859201655
0.9498806,0.1671381,0.3139685,1.0142901546008518
0.951375,0.1638723,0.3165686,1.0159646646602676
0.951233,0.160486,0.3114177,1.0136966806487482
0.9518166,0.1605105,0.3038219,1.0119418004833183
0.9511935,0.162119,0.30767,1.0127746410249667
0.9529035,0.1615685,0.3113298,1.0154091317653886
0.9559432,0.1626589,0.3104544,1.0181685783085284
0.9575082,0.1632683,0.3129409,1.02049522181387
0.9573772,0.1626442,0.3104763,1.0195193827167632
0.9562759,0.1640676,0.3094226,1.018392910266627
0.9572355,0.1613326,0.3134568,1.0200897880820345
0.9571551,0.1585141,0.3117655,1.0190536454696926
0.956099,0.1610425,0.3125494,1.018698734684406
0.9556091,0.1629473,0.314988,1.0192928993788293
0.9534236,0.1643602,0.3157061,1.0176940492889845
0.9538519,0.1652816,0.3206704,1.0197945674832407
0.9548826,0.1624046,0.3184873,1.0196127667625636
0.9534493,0.1581658,0.311074,1.0153073531872652
0.953414,0.1579472,0.3078762,1.014264919984064
0.9526964,0.1608599,0.3098462,1.0146482176870022
0.9523407,0.1625701,0.3167721,1.0167233692745092
0.9532702,0.1639205,0.3156686,1.0174677732263808
0.9525414,0.1650009,0.3129004,1.0161038706918353
0.953243,0.1654254,0.315256,1.0175579224546187
0.9557114,0.1654865,0.3138733,1.019454025557357
0.9574945,0.1649756,0.3156936,1.021604187152035
0.9568905,0.1654244,0.3153062,1.020991018992846
0.9536271,0.1651827,0.3104718,1.0164067634706786
0.9521655,0.164149,0.3096395,1.0146135488704553
0.9527267,0.1638637,0.3089156,1.0148735512338174
0.9534679,0.1632819,0.3106342,1.015999813684855
0.9555102,0.162303,0.3117845,1.0181117721317683
0.9568416,0.1605938,0.3121381,1.0191989057885658
0.9536831,0.161388,0.3138596,1.0168900581094154
0.9487814,0.1653703,0.3124509,1.0125013807491128
0.9503276,0.1666659,0.3142642,1.0147226502577984
0.9555562,0.1634483,0.3144915,1.019170202519471
0.9573958,0.1595523,0.3118035,1.019453322573025
0.9566706,0.1608721,0.3138222,1.0195993539992119
0.9544812,0.1635965,0.315745,1.018574042959416
0.9544841,0.1638566,0.3182494,1.0193976471999187
0.9545718,0.1668901,0.3155157,1.0191220652010926
0.9521654,0.1671629,0.309865,1.0151742226428773
0.9521322,0.1639157,0.3129713,1.0155664023622581
0.9513565,0.1640838,0.3137651,1.0151114330420579
0.9526158,0.1645431,0.3133036,1.016223617094294
0.9583569,0.1655875,0.3172687,1.0229988249912851
0.9600685,0.1655284,0.3154114,1.024019300183727
0.9574465,0.1643801,0.3108291,1.0199702677260107
0.954181,0.1677031,0.308787,1.0168260037388943
0.9553762,0.170355,0.3086084,1.0183337636070013
0.9574967,0.169406,0.3096616,1.0204845074088336
0.9547666,0.1668544,0.310801,1.0178491601784225
0.9529734,0.1642888,0.3161238,1.0173904697015006
0.9505414,0.1637698,0.3209431,1.0165401978985436
0.9496746,0.1646801,0.316825,1.0145833932438328
0.9510055,0.1670083,0.3115281,1.0145703476786367
0.9491016,0.1678667,0.3122375,1.0131462542484673
0.9503562,0.1673862,0.3134366,1.0146120189749577
0.951444,0.1658542,0.3138423,1.015504943396599
0.9507879,0.1629913,0.3157728,1.0150252488888836
0.9527497,0.1656483,0.3147635,1.0169795529287844
0.9535969,0.1695005,0.3127122,1.0177752144843673
0.9551828,0.1704893,0.3133699,1.019628107231426
0.9510856,0.1724663,0.3123979,1.0158252266445542
0.9444618,0.1700118,0.3128841,1.0093604726911443
0.8876658,0.331941,0.3377334,1.0060811346239427
0.888051,0.3320123,0.3432571,1.0083115503913958
0.8880588,0.3343245,0.3378393,1.0072520519622585
0.8854819,0.3370286,0.3315118,1.0037761433630559
0.8840434,0.3384746,0.3358492,1.0044363957311384
0.8862655,0.3392656,0.3374003,1.0071775644213388
0.8894067,0.3399634,0.3373483,1.0101600204211905
0.8908426,0.3381053,0.3411424,1.0120740432105795
0.8905256,0.3344474,0.3416377,1.0107458759170922
0.8896819,0.3338965,0.3400241,1.0092755542866725
0.8895089,0.3328173,0.3384743,1.0082451537790746
0.8884695,0.3307498,0.3393025,1.0069258508631804
0.8866592,0.3323827,0.3417328,1.0066896755205994
0.8861843,0.332297,0.3413317,1.0061069720464022
0.8870304,0.3312461,0.3415156,1.006568335649761
0.8897586,0.3325169,0.3403657,1.0090028071299206
0.8907355,0.3313996,0.3380537,1.0087198470953667
0.8879358,0.32996,0.3383943,1.005889799527826
0.8860801,0.3293875,0.336377,1.003386044800933
0.885956,0.3303421,0.3363909,1.003594925540788
0.887112,0.333481,0.3394492,1.006679212701663
0.8879596,0.3337586,0.3382824,1.0071256309199363
0.887297,0.3345635,0.3361369,1.0060898157137166
0.8880598,0.3356521,0.3341056,1.006448753072808
0.8902403,0.3337753,0.3340915,1.0077454405783388
0.8923822,0.3339723,0.3356663,1.0102253971267106
0.8917559,0.3332864,0.3345646,1.0090797199344212
0.8889564,0.3317314,0.3364043,1.0067060424500343
0.8878396,0.3323354,0.3381968,1.0065202675314393
0.8871215,0.3316027,0.3353646,1.0046961338348526
0.8874062,0.3314005,0.334106,1.0044614847940612
0.8884463,0.329617,0.3364685,1.0055820434777762
0.8897836,0.3264923,0.3439288,1.0082653897946166
0.8926405,0.3277856,0.3492683,1.0130344550865484
0.892109,0.328883,0.3395192,1.0096017941439288
0.8907546,0.3299505,0.3274715,1.004762993538108
0.8922655,0.3326055,0.3303887,1.0079289827206033
0.8916246,0.3305389,0.3331213,1.007581357634241
0.8911326,0.3278302,0.3306263,1.005437069669947
0.8912256,0.329582,0.3391006,1.0089086092108244
0.8897011,0.3305369,0.3455805,1.0100735476108014
0.8902271,0.3302651,0.3414467,1.0090417111266066
0.8906389,0.3309297,0.3384665,1.0086187030575777
0.8899302,0.3302591,0.3350549,1.0066323162003394
0.8908061,0.3294658,0.3352727,1.0072194420939957
0.8917246,0.3294159,0.3374641,1.0087465569739409
0.8915031,0.3300364,0.335636,1.0081435052265972
0.8890321,0.3332508,0.3379442,1.0077898852661153
0.8868008,0.335627,0.339033,1.0069779129149954
0.8868878,0.3354808,0.3340093,1.0053255937476027
0.8862026,0.3345192,0.3306174,1.003277632860496
0.8875132,0.332795,0.3314634,1.004141512805242
0.8898302,0.3307695,0.3329521,1.0060135922822813
0.8875025,0.3282655,0.3316362,1.0026971103712925
0.8853623,0.3286955,0.3327499,1.001313951731199
0.8861769,0.3299419,0.3351843,1.0032545392051362
0.887221,0.3276578,0.3344742,1.003191769906173
0.8881721,0.3274969,0.3352333,1.004233670097209
0.8891756,0.3283183,0.3365712,1.0058361329857315
0.8913137,0.3282984,0.337757,1.0081169288823841
0.8931288,0.3299045,0.338273,1.010418059537086
0.8941407,0.330064,0.3378611,1.011226956912097
0.8948842,0.3305115,0.3407046,1.0129833204466152
0.8940491,0.3303091,0.342658,1.0128387826883507
0.8938785,0.325815,0.3429996,1.0113470782018457
0.8944139,0.32052,0.342754,1.010044355179123
0.8942223,0.3183828,0.3373563,1.0073779838287216
0.8931464,0.3220912,0.3312548,1.0055759421711719
0.8920557,0.3270256,0.3292638,1.0055465006394733
0.8928645,0.328349,0.3310293,1.0072737853333322
0.8922659,0.3281095,0.3332266,1.0073898189085593
0.8917148,0.3272968,0.3347476,1.007141715715837
0.8923319,0.3275038,0.3390551,1.0091943913875363
0.8909562,0.3263324,0.3413094,1.0083590095479684
0.8918094,0.3239723,0.3399912,1.007906778017238
0.8919574,0.325463,0.3388781,1.0081431120844748
0.8900481,0.3271917,0.3368097,1.006320427536175
0.8905647,0.327684,0.3358118,1.0066041196822761
0.8905598,0.3273775,0.3377631,1.0071527672621965
0.8928999,0.3256429,0.3424912,1.0102543005688518
0.8951164,0.3265653,0.345017,1.0133681438658164
0.8912188,0.3279157,0.3400474,1.0086782886662575
0.8874191,0.3284571,0.3355212,1.0039776896100132
0.887045,0.3298036,0.3373402,1.004697793933081
0.8887106,0.3283757,0.3358976,1.0052185476743902
0.8892991,0.3252759,0.3233525,1.0006068856638306
0.8884352,0.3230983,0.3139763,0.9961379086369617
0.8881511,0.3241764,0.3233245,0.99922041965145
0.8876948,0.3275752,0.3354626,1.003913704259903
0.890049,0.3267208,0.334216,1.0053029584208135
0.89281,0.3258845,0.3337445,1.0073210981213985
0.8915311,0.3284243,0.3382623,1.0085195123045414
0.890278,0.3281753,0.3372143,1.006979358745044
0.8903281,0.3274087,0.3372953,1.00680122262907
0.8905461,0.3289064,0.3382524,1.0078027893848727
0.892057,0.3295127,0.3365616,1.008770549384175
0.8938709,0.3289156,0.3381257,1.0107025510953556
0.8940835,0.3281755,0.3380167,1.0106135528733968
0.8942961,0.3274455,0.3396377,1.0111082223020196
0.8943116,0.3267203,0.3427448,1.0119354674353944
0.891519,0.3268405,0.3386395,1.0081208016708612
0.889411,0.3289289,0.336508,1.0062225311730055
0.8907353,0.33146,0.3385647,1.0089108792912187
0.8933247,0.3314838,0.3385131,1.0111882357722226
0.8949143,0.3324496,0.3344535,1.011559926325129
0.8934131,0.3354411,0.3306697,1.009975321143497
0.8905838,0.3324708,0.3349173,1.0078918272882116
0.889973,0.3290247,0.3395603,1.007774970554032
0.8912704,0.332784,0.3389073,1.0099337971201132
0.8920499,0.334043,0.3370606,1.0104195158504066
0.8916566,0.330862,0.3336976,1.007906366491114
0.8915042,0.3291501,0.3322689,1.00673837160151
0.8916056,0.3295316,0.338744,1.009108080874353
0.8907775,0.3329321,0.3446087,1.0114758987896597
0.8899208,0.3353286,0.3363448,1.0087279736071761
0.8902552,0.3321004,0.3288236,1.0054700178146339
0.8904584,0.3282075,0.3374215,1.0072187418078855
0.8901372,0.329052,0.3442616,1.0095224132045806
0.8901325,0.3307407,0.3419756,1.009293113613731
0.8894333,0.3299927,0.3412801,1.008195855902111
0.8885424,0.3289417,0.3408765,1.0069295044087743
0.889014,0.3272898,0.3382448,1.0059195047850897
0.8905097,0.3271075,0.3384483,1.0072507602991572
0.8931129,0.3279868,0.3422403,1.011115431622295
0.8948219,0.3274982,0.340795,1.011979513502052
0.8919683,0.329863,0.3347254,1.0081954871844299
0.889026,0.3318076,0.3349098,1.006294234421424
0.8912351,0.3311397,0.3377161,1.0089626695707379
0.8924206,0.3308195,0.3395115,1.0105068666351853
0.8902607,0.3287556,0.3416356,1.008642276371167
0.89001,0.3303885,0.3412297,1.0088171634118543
0.8904481,0.3326477,0.3411592,1.0099217350139267
0.8901795,0.3269622,0.3374536,1.006577743943333
0.8903548,0.324199,0.3330926,1.0043840608346988
0.8907581,0.3295721,0.3377047,1.0080239214503344
0.8929677,0.3327417,0.3403551,1.0119041191032825
0.8949502,0.3268503,0.3382977,1.0110451586924394
0.8923637,0.3218467,0.3374741,1.0068699218615034
0.8878964,0.3291917,0.3355743,1.004657804081738
0.8869076,0.3346227,0.3343635,1.0051748068994268
0.8889668,0.3301055,0.3360768,1.0060711844252024
0.8910643,0.3277713,0.3398932,1.0084428586907739
0.89217,0.3274053,0.3400042,1.0093385930329475
0.8917362,0.3247645,0.3366658,1.0069802836899688
0.8915357,0.3235022,0.3369168,1.0064802570848421
0.8929677,0.3260425,0.3361999,1.0083280209383998
0.8941858,0.3290263,0.327566,1.0075346323423975
0.894178,0.3288349,0.3204965,1.0051888845656125
0.8916387,0.331473,0.3299844,1.0068682263881654
0.8883507,0.3366511,0.3420536,1.009703716242869
0.8886466,0.3344922,0.3393197,1.00832319737299
0.8902671,0.3297691,0.3363663,1.0072067595250291
0.8903599,0.3290178,0.3356918,1.006817981976926
0.8902979,0.3286791,0.3300458,1.0047838233266198
0.8906234,0.329065,0.3301247,1.005224418924774
0.8920156,0.3276856,0.3319983,1.0066243362315506
0.8936772,0.3250516,0.3301202,1.0066264584792315
0.8928651,0.3257722,0.3342982,1.0075171956915128
0.8908431,0.3254064,0.3369684,1.0064981155358066
0.8899936,0.3268842,0.3311595,1.0042950277138933
0.8899002,0.3325205,0.3281335,1.0050690735977006
0.8896125,0.3338018,0.3319855,1.006503062116425
0.8887915,0.3304208,0.3369487,1.0063114140148566
0.8896669,0.3273039,0.3374708,1.0062413113977482
0.8918645,0.3282259,0.3370752,1.0083522292562752
0.8918438,0.3301334,0.3381509,1.009316331268255
0.8914725,0.3290155,0.336715,1.008142553769803
0.89183,0.330242,0.3353383,1.0084008641958266
0.8915463,0.33263,0.3327852,1.0080890393624613
0.8917202,0.3313351,0.3313717,1.0073505185092921
0.8916951,0.3275071,0.3361206,1.0076497951464982
0.8915715,0.3259304,0.3386813,1.0078865949233078
0.8917867,0.331088,0.3374761,1.0093527134317815
0.8913934,0.3352333,0.3371538,1.0102654323725473
0.8908084,0.3330412,0.337056,1.0089909779299318
0.8900371,0.3317446,0.3350706,1.0072203462946576
0.8897355,0.3324043,0.3323402,1.0062663102552822
0.8887885,0.3328252,0.3340958,1.0061498969164235
0.8871443,0.3344585,0.3353503,1.0056576559420356
0.8890505,0.3349399,0.3322553,1.0064736025054755
0.8913832,0.3321179,0.3305213,1.0070306045480149
0.890128,0.3284869,0.3304698,1.0047098031609178
0.8900518,0.3260836,0.3315167,1.0042041840438078
0.8916048,0.3259809,0.3336213,1.006243428978068
0.8917519,0.3268181,0.337893,1.0080690457950885
0.8911662,0.3262318,0.3431775,1.009145767399304
0.888982,0.3264475,0.3433246,1.0073374546523177
0.8869537,0.327718,0.3427556,1.0057670479783327
0.889267,0.3290656,0.3438891,1.0086325790351858
0.8924405,0.3314424,0.3412184,1.0113031726720578
0.8927308,0.3326052,0.3393137,1.011300295334363
0.8929782,0.3328063,0.3385194,1.011318685267552
0.8935789,0.3334979,0.3354763,1.0110630285453572
0.8936982,0.3323823,0.3353376,1.0107550504500533
0.8941788,0.3278654,0.338928,1.0109023870139986
0.8918894,0.3233542,0.3422058,1.008528358571855
0.8881273,0.3249628,0.338097,1.0043308736657108
0.888528,0.3288939,0.3321359,1.0039758265566059
0.8896461,0.3296825,0.3368279,1.0067838736639905
0.8894328,0.3305931,0.3393519,1.0077411450948404
0.8905916,0.3297814,0.336215,1.0074471182158993
0.8908981,0.3269169,0.3386215,1.0075904943733194
0.8916546,0.3272172,0.3405957,1.0090215322457146
0.8938422,0.3275037,0.339865,1.0108020430527087
0.8929181,0.3258451,0.3359409,1.00813394486766
0.890687,0.3263512,0.3320752,1.005038494867475
0.890128,0.3277469,0.3348827,1.0059285807664975
0.8902098,0.3277692,0.3359509,1.0063643195659762
0.8913616,0.3276748,0.335687,1.007264631801693
0.8920145,0.3269128,0.3382178,1.0084409389007025
0.8916971,0.3266805,0.3391312,1.0083917086341498
0.8931255,0.3300205,0.3379861,1.0103570126265813
0.8960312,0.3322798,0.3349455,1.0126550571797537
0.8977315,0.3277438,0.3350707,1.0127241571766619
0.8950997,0.3229108,0.3395476,1.0103303570429278
0.8906066,0.3250144,0.3427608,1.008116780034714
0.8901908,0.3276218,0.342238,1.008415863066364
0.8930542,0.3284074,0.3392898,1.0102053221481464
0.8953863,0.3312703,0.3380882,1.012798236999364
0.8941954,0.3293781,0.3346482,1.0099825562374876
0.8910254,0.3260164,0.3314227,1.0050144091451674
0.8899293,0.3289318,0.3330058,1.0055163603260615
0.8899927,0.3307987,0.3309246,1.005497825388071
0.8905147,0.3320372,0.3313708,1.0065146497655013
0.8907696,0.3327147,0.340941,1.0101536107747424
0.8916808,0.3297792,0.3504087,1.0132300957220775
0.8937633,0.3287428,0.3507427,1.0148424048008735
0.892109,0.3275358,0.3413872,1.0097937356145958
0.8898972,0.3269036,0.3360986,1.0058554862318743
0.890439,0.3277581,0.3364273,1.0067225601037755
0.8901566,0.3260306,0.3338659,1.0050577912949732
0.889934,0.3279269,0.3315138,1.0046989477898591
0.888615,0.3304416,0.3306868,1.0040826803255796
0.8874632,0.3285334,0.3329008,1.003169013133101
0.8910519,0.3281582,0.335984,1.0072470109048972
0.8944594,0.3278118,0.3348292,1.0097666996094892
0.8934447,0.3275758,0.3340834,1.008544027229
0.893137,0.3290464,0.3351395,1.0091004501942362
0.8948639,0.3287345,0.3340351,1.010161976638138
0.8928427,0.3265479,0.3304949,1.0064931678177005
0.8904611,0.3241406,0.3265718,1.002315938083801
0.8918433,0.3249594,0.3267618,1.0038706875601509
0.8910124,0.3275711,0.3340149,1.0063656770433798
0.8895893,0.3278646,0.3399386,1.0071854697013902
0.8908513,0.3277574,0.3377717,1.0075369339569344
0.8924921,0.3266734,0.3359332,1.0080222089280624
0.8952568,0.3250152,0.3364463,1.010106791859638
0.8966761,0.3249274,0.3342474,1.010607326308656
0.8955999,0.3248939,0.3339955,1.00955842879819
0.8954567,0.3254623,0.3377421,1.0108600973471007
0.8952067,0.3268258,0.3451075,1.013562689638278
0.8938741,0.3281453,0.3518794,1.0151400675312052
0.893391,0.3280244,0.3407474,1.0108690699013003
0.8927726,0.3263378,0.3258585,1.00484975844245
0.890942,0.3264926,0.3353934,1.006411346310404
0.8901112,0.3275627,0.342215,1.008318589048982
0.8910245,0.3291,0.3343281,1.006979020660242
0.8919345,0.3315803,0.3359175,1.0091249746411937
0.890917,0.3318626,0.3356067,1.008215127466678
0.889428,0.3302702,0.3327489,1.0054264779899373
0.8893756,0.3285047,0.3363019,1.0059837293619913
0.8881165,0.3288499,0.3335695,1.0040725997817639
0.8876777,0.3296738,0.3305341,1.0029503002375244
0.8896931,0.3278154,0.3291837,1.0036825479256177
0.8900951,0.3278656,0.3281119,1.0037044174601304
0.8910089,0.3298053,0.3322524,1.0065088440212833
0.8923957,0.3305055,0.3329193,1.0081861094169222
0.8912699,0.3291946,0.3350315,1.007460781026944
0.8907688,0.3272417,0.338747,1.007623796504097
0.8912024,0.3304067,0.3343915,1.0075852224218553
0.8917951,0.3334352,0.3308084,1.0079244666608753
0.8929295,0.3312466,0.3300485,1.0079580419511818
0.8925571,0.3301894,0.329388,1.0070648793284223
0.8904191,0.3308163,0.3316622,1.0061239550370222
0.8888355,0.332058,0.3342773,1.005998198169132
0.8919856,0.3325962,0.333618,1.0087415490529772
0.896137,0.3310355,0.3315417,1.0112200175373014
0.8932602,0.3300387,0.33215,1.0085449672184825
0.8899664,0.3280609,0.3320277,1.0049410633490206
0.8905371,0.3268699,0.3327792,1.0053070446162504
0.8899815,0.3283428,0.3387378,1.0072831587011322
0.8906632,0.3277809,0.3437294,1.0093914774077548
0.8925364,0.3266855,0.3451436,1.0111719665102321
0.8940676,0.3246456,0.3447553,1.0117350719665745
0.8943587,0.3215787,0.3425035,1.010246995576641
0.8895972,0.3253755,0.3374597,1.005550318667435
0.8863201,0.3297176,0.3360035,1.0035812709621579
0.8897664,0.3264572,0.3397964,1.0068367014832942
0.8940839,0.3244331,0.3390037,1.0097357898126174
0.8944727,0.3252446,0.3392523,1.0104244573097685
0.8906352,0.3238968,0.3414031,1.0073213356317288
0.8878728,0.3238068,0.3388861,1.0039983772294108
0.8895469,0.3271432,0.3368803,1.0058850317675176
0.8912242,0.3321253,0.3338713,1.0079969417262238
0.8900726,0.3345912,0.333797,1.0077702821562065
0.8903987,0.3320586,0.3361059,1.0079880628313314
0.8935154,0.3302224,0.333904,1.009409968602906
0.8949502,0.3307769,0.3346958,1.0111233834657816
0.8943459,0.3302188,0.3353346,1.0106178004950288
0.8923693,0.3296583,0.3339697,1.0082327721610074
0.8912111,0.3285201,0.3356073,1.0073802363956272
0.8927313,0.32616,0.3363658,1.008212016893932
0.8931865,0.3254464,0.338378,1.0090575572975062
0.8920151,0.3289998,0.3407798,1.0099815241459074
0.8903865,0.3338158,0.3407981,1.0101309086823844
0.8898693,0.3324302,0.3379559,1.0082615728566373
0.8905734,0.3305377,0.3331452,1.0066587684969965
0.8901463,0.332923,0.3359076,1.0079841640970606
0.8902696,0.3318784,0.3394613,1.0089386538677216
0.8902135,0.331326,0.3353234,1.0073225781475414
0.8892107,0.3327326,0.3337827,1.0063883658491586
0.8887904,0.3314257,0.3338675,1.0056136819419772
0.8886657,0.3320085,0.3346987,1.0059719629345691
0.8892982,0.3322644,0.3391298,1.0080971884092524
0.8899291,0.3312839,0.3394724,1.008446496244486
0.8912722,0.3305649,0.3374724,1.0087253879855558
0.8921215,0.3256402,0.3356471,1.0072642584529146
0.8904756,0.3234854,0.3357721,1.005152974102415
0.8899572,0.3306921,0.3442097,1.009881874482526
0.8911114,0.3366445,0.3488695,1.0144550136011257
0.8938198,0.3307832,0.3433899,1.0130389842924556
0.8969718,0.3245837,0.3390332,1.0123519639943264
0.8952983,0.3284639,0.3353718,1.0109014906613503
0.8905814,0.3297427,0.3350428,1.0070348335887345
0.8879512,0.3308139,0.3404192,1.006866625598093
0.8886179,0.336587,0.3407679,1.009482710322381
0.8908236,0.3332546,0.3384693,1.0095478105471825
0.8917868,0.3290963,0.3346634,1.0077636938427035
0.8919678,0.3321871,0.3286481,1.0069579928064825
0.8919916,0.332392,0.3326645,1.008364579750206
0.892962,0.3325209,0.3372608,1.010789854320595
0.8948071,0.3339095,0.3337671,1.01171921867832
0.8939594,0.333368,0.3361652,1.0115852282251852
0.8922652,0.3338019,0.3444498,1.0130185389689026
0.8907125,0.3338471,0.3498201,1.013507151528133
0.8891504,0.3335735,0.3450926,1.010420019742864
0.890046,0.333523,0.3365227,1.0082990634034577
0.8895214,0.3301388,0.3386051,1.0074191590740222
0.888767,0.3278981,0.3399793,1.0064839137815864
0.8886564,0.3318195,0.3357388,1.0062479414471615
0.8868395,0.3344723,0.3359957,1.0056088348090575
0.8893852,0.332814,0.3352213,1.0070474231875726
0.8914468,0.3317584,0.3341517,1.00816585531037
0.8898536,0.3315247,0.3351682,1.007018261221856
0.8913121,0.3322037,0.334038,1.0081557138379469
0.8920455,0.3319798,0.333439,1.0085322644314807
0.8913752,0.3305453,0.3339918,1.0076509638730913
0.8908254,0.3308995,0.3383281,1.0087270570550886
0.8898689,0.3314037,0.3413068,1.009051734693093
0.8905483,0.3330831,0.334426,1.007899486860917
0.8912272,0.333864,0.3297019,1.0072012884123263
0.8922076,0.3318944,0.3328531,1.0084540051131385
0.8934789,0.3313462,0.3362377,1.0105199849092248
0.8937783,0.3292619,0.3386026,1.0108930552087396
0.8930338,0.3270431,0.3405771,1.0101778646577344
0.8915964,0.3291328,0.3414988,1.009898000260541
0.8920698,0.3326207,0.3388173,1.0105554022020862
0.8934801,0.3350509,0.3336459,1.010883465723735
0.8947836,0.3344328,0.3329359,1.0115974011698576
0.8946036,0.3318048,0.3374066,1.012053970971687
0.892014,0.3303768,0.3399295,1.0101434903737638
0.8913635,0.3328796,0.3380292,1.0097531665120194
0.8922242,0.3360221,0.3376227,1.0114168093863876
0.8942801,0.3334385,0.3421516,1.013896369418897
0.8963383,0.3298387,0.3448322,1.0154433328460137
0.8930413,0.327725,0.3383814,1.0096674754574646
0.889448,0.3273929,0.3324509,1.004404030550067
0.8904425,0.3322842,0.3372757,1.0084917120067869
0.8924555,0.3335638,0.3404078,1.0117406280522345
0.8934287,0.3305427,0.3343849,1.0095972364537207
0.8928195,0.3324271,0.3308587,1.0085147077560892
0.8910627,0.333441,0.3321179,1.0077092513779458
0.8897827,0.3325501,0.3327923,1.0065056071222802
0.8901539,0.3331412,0.3353876,1.007889808985293
0.8905906,0.3313889,0.3386562,1.008790484515992
0.8897356,0.331045,0.3371758,1.0074263000527632
0.8884853,0.3300422,0.3331382,1.0046467251706792
0.8872478,0.326499,0.3317531,1.0019333186222774
0.8880609,0.3285574,0.3343836,1.0041984461014317
0.8896393,0.3302863,0.3373183,1.007139890773407
0.8887935,0.3288659,0.3363693,1.005609751249236
0.8883802,0.3314226,0.3350813,1.0056539151977135
0.8885516,0.3344793,0.3356073,1.006991860843145
0.8882914,0.3348496,0.3335896,1.0062146327510249
0.8907929,0.3329359,0.3323086,1.0073665220927188
0.8927192,0.3311002,0.3330757,1.0087191553743637
0.8911892,0.3320119,0.331478,1.0071383998350227
0.8905309,0.3319101,0.3316476,1.0065782279200062
0.8903786,0.3295014,0.3330736,1.0061228786569163
0.8901081,0.3269396,0.3341466,1.0054033429551197
0.8917766,0.3264039,0.3371037,1.0076923711115708
0.8933693,0.3300467,0.3369039,1.0102196633399045
0.892944,0.3329721,0.3373524,1.010953039611717
0.8904612,0.3301098,0.3414615,1.0092024498304242
0.8895132,0.3269976,0.3403959,1.006990830204928
0.8917369,0.327615,0.3369406,1.0079956621806316
0.8920053,0.3271819,0.3368392,1.0080585784429097
0.891322,0.3257974,0.3360497,1.0067414039369047
0.8917499,0.3262838,0.3351468,1.0069768516915818
0.8906417,0.3257009,0.3397801,1.0073600301757608
0.8899847,0.3250347,0.3443507,1.0081159293596496
0.8908517,0.3276966,0.338953,1.0079141576808266
0.8929682,0.3298291,0.3333954,1.0086287395068663
0.8951453,0.3275352,0.3366843,1.0109009512398432
0.8930508,0.325256,0.3374673,1.0085709570902437
0.8884771,0.3267212,0.3339957,1.0038383472314356
0.8857403,0.3277411,0.3331145,1.0014566280091963
0.8865217,0.3275398,0.3327952,1.0019758930722684
0.8909993,0.328299,0.3322887,1.0060197642935151
0.8943691,0.3280089,0.3301215,1.0081994496508466
0.8926568,0.327133,0.3290985,1.0060606268895975
0.8887026,0.3271022,0.3349137,1.0044676933278094
0.8867866,0.3284726,0.339371,1.0047175715251127
0.8872469,0.3295449,0.3374809,1.0048384250915319
0.8878915,0.328706,0.3359588,1.0046229469336692
0.8878045,0.3302454,0.3373209,1.0055069587119823
0.8893956,0.3311159,0.3387737,1.0076854133825002
0.8928947,0.3288424,0.3384415,1.0099212435868947
0.8937067,0.3283254,0.3360107,1.0096595586753685
0.8929169,0.3274604,0.3319647,1.0073388039383075
0.8934452,0.3275104,0.3304946,1.0073400955687013
0.8921003,0.3283641,0.3299143,1.0062352472326688
0.8895137,0.3272571,0.3269662,1.0026159423879812
0.8899575,0.3279819,0.3292512,1.0039934418288299
0.8918678,0.3275757,0.3360876,1.0078139147586174
0.8917171,0.3256038,0.3404393,1.0085019276091345
0.8918419,0.3255882,0.3413024,1.008898894250861
0.8937276,0.3280823,0.3393062,1.0107006064772543
0.8947547,0.3321101,0.3381631,1.0125400603905557
0.8947278,0.3309437,0.336647,1.0116287714727819
0.8941553,0.3293579,0.3350719,1.0100809398162653
0.8945797,0.3316525,0.3366453,1.011729350380046
0.8954845,0.3312421,0.3358978,1.0121468028885434
0.8948521,0.3307655,0.3337834,1.0107311487137518
0.8940974,0.3272917,0.333162,1.0087254015933425
0.8924286,0.3218273,0.3319323,1.0050774442332988
0.8911578,0.3261002,0.3318699,1.0053065181659224
0.8918804,0.3309087,0.3310206,1.007236741418923
0.8922594,0.3281951,0.3307702,1.0066020990244409
0.8915764,0.3261263,0.3344136,1.0065283386242088
0.8897653,0.3256544,0.3370817,1.0056625427042314
0.8900337,0.3287381,0.3365272,1.006717081342688
0.8919902,0.3340276,0.3355878,1.00987134129385
0.8924744,0.3317956,0.3372048,1.0101019512790577
0.8934057,0.327839,0.338508,1.0100692158349793
0.8932288,0.3282134,0.3384363,1.010010323831737
0.8926378,0.3281679,0.3392458,1.0097445842374646
0.8932217,0.3295305,0.3372463,1.0100348620937942
0.8918708,0.3299046,0.336048,1.008562753277058
0.8903935,0.3291827,0.3357993,1.0069374383257532
0.8901166,0.3312238,0.3322895,1.0061973360590108
0.8901732,0.3297635,0.3336941,1.006232599504359
0.890494,0.3282288,0.3361509,1.0068322287035958
0.8899616,0.329596,0.3341945,1.006156616298283
0.8893673,0.3280653,0.3355432,1.0055795714112434
0.8889311,0.3274148,0.3363319,1.0052452928334756
0.889509,0.3277511,0.3330385,1.0047694696369212
0.890872,0.3267882,0.3319093,1.005289625665027
0.8902624,0.3264403,0.3352941,1.0057596849211345
0.8903201,0.3275437,0.3383599,1.0071952034246936
0.8923915,0.3310386,0.3341679,1.0087702064160202
0.8934399,0.3320818,0.3296448,1.0085528597799374
0.8932425,0.3282934,0.3317611,1.007831408402725
0.8926034,0.3259872,0.3324266,1.0067352823075986
0.8922073,0.3305051,0.331518,1.0075572795743675
0.8915812,0.335821,0.3319201,1.0088923297450774
0.8913061,0.3338306,0.3305147,1.0075263769796103
0.8920301,0.3322438,0.3316343,1.0080103922484829
0.8919346,0.3331135,0.3355649,1.0095126233343594
0.8932633,0.330284,0.3360517,1.0099195952429976
0.8952973,0.3268146,0.3356072,1.0104440760637325
0.894061,0.3247718,0.3380603,1.0095080783393118
0.8919517,0.3288548,0.33816,1.0089972746325582
0.890004,0.3341914,0.335549,1.0081587887088819
0.8905083,0.3293721,0.3351887,1.0068974512009603
0.8959519,0.324844,0.3310007,1.0088681255992282
0.8986558,0.3255109,0.326297,1.0099551104388007
0.8949051,0.3262836,0.3312836,1.0084963803920817
0.8897506,0.3292116,0.3352011,1.0061790025716746
0.8862911,0.3311055,0.3321432,1.0027272168320256
0.887013,0.3337129,0.3310127,1.0038554524216623
0.8894429,0.3361062,0.3324372,1.0072688528802476
0.8887633,0.3330102,0.3320683,1.0055174551422865
0.8886351,0.3318506,0.3314992,1.00483276283818
0.8895439,0.3323169,0.3321599,1.0060084846664217
0.8895458,0.3312087,0.3309355,1.0052408857649893
0.8915793,0.3310758,0.3309918,1.0070155933258282
0.8925826,0.3286563,0.3352637,1.0085238767080034
0.8929882,0.3277283,0.3387432,1.0097428977251437
0.8947003,0.3298366,0.3380991,1.0117271425342211
0.891942,0.3292756,0.3359259,1.008379473417706
0.8889225,0.3288148,0.3352425,1.0053307503063555
0.8907245,0.3294126,0.3328852,1.0063375936126258
0.8930975,0.3294582,0.3326072,1.008361740421229
0.8958835,0.3303781,0.3365613,1.0124378712738624
0.8975849,0.3302165,0.3370437,1.014051303085771
0.8935868,0.3285934,0.3370658,1.0099922500630587
0.8890181,0.3289071,0.3348451,1.0053130375917891
0.8900756,0.3302739,0.3290215,1.0047738900861327
0.8909674,0.3313073,0.3287683,1.0058210725476673
0.8897435,0.3335669,0.3308491,1.0061667354562414
0.8907955,0.3334152,0.3334146,1.0078926599119817
0.8918548,0.3309153,0.3354709,1.0086875853325152
0.8918928,0.3304783,0.3327595,1.0076792933780967
0.8916232,0.3302454,0.3314914,1.0069461272944844
0.891059,0.3306992,0.334321,1.007530959029369
0.8902028,0.3308145,0.3382283,1.008115886919247
0.8878371,0.330234,0.3392311,1.0061744133596422
0.8874911,0.331873,0.3359886,1.005320088349064
0.8894875,0.3322779,0.3344915,1.0067180236078572
0.8906068,0.3327229,0.3381073,1.0090597339622367
0.8905278,0.333819,0.3410667,1.010347158744325
0.8890656,0.333135,0.3359216,1.0071047069073404
0.8897679,0.3326736,0.3309894,1.005938677514554
0.8916975,0.3301362,0.3334607,1.0076261114625702
0.8917297,0.3280223,0.3332354,1.006889427381448
0.8918369,0.3294103,0.3299742,1.0063633412507333
0.891292,0.3302274,0.3285788,1.005691599241139
0.8905996,0.3321768,0.3286328,1.0057378342362586
0.8893366,0.3353951,0.3334073,1.0072586008056026
0.8883556,0.3345279,0.3366629,1.0071874185900953
0.8901494,0.3311926,0.3353652,1.0072359753236377
0.8905778,0.3293228,0.3378838,1.0078431359865085
0.8901138,0.3285251,0.3373461,1.0069924078490662
0.8904016,0.3291785,0.3325813,1.005874651860012
0.8904852,0.3286414,0.3334737,1.0060684717277895
0.8923845,0.3269261,0.33334,1.0071476189225987
0.8944318,0.3280636,0.3322522,1.008972494620661
0.894341,0.328338,0.3341689,1.0096140451936126
0.8916064,0.3291238,0.3346153,1.007597065915483
0.8892758,0.3317117,0.3347471,1.0064291934065406
0.8902767,0.3308708,0.3316398,1.0060084720317073
0.890672,0.3291397,0.3286346,1.0048035897712797
0.88964,0.3272774,0.3309216,1.0040313398979734
0.8885269,0.3261511,0.3342748,1.0037899351805935
0.8870612,0.3272373,0.3370733,1.0037829609181559
0.8875411,0.3278483,0.33458,1.0035723633112363
0.8895425,0.3296181,0.332334,1.0051765211692223
0.8899623,0.3299589,0.3366464,1.0070931286348148
0.8899187,0.3293977,0.3384265,1.0074674353433117
0.8922666,0.33215,0.3379505,1.0102840434381857
0.8948315,0.3324512,0.3399374,1.0133136975746702
0.8947011,0.3313767,0.3409592,1.0131898892649591
0.8941198,0.3328554,0.3341443,1.010888395068264
0.8945976,0.3345111,0.3257692,1.009122447286557
0.8944899,0.3364603,0.3290931,1.0107521868122322
0.8942879,0.3341704,0.3329452,1.0110752744111637
0.8945981,0.3283428,0.3310166,1.0088046115631162
0.8943745,0.3269413,0.332389,1.0086024029402962
0.8944103,0.3278598,0.3323999,1.0089358387539518
0.8940158,0.3279691,0.3333674,1.0089409321596632
0.8916439,0.3277427,0.3405405,1.0091639876406362
0.8900756,0.3277729,0.3444162,1.0091046360572375
0.8926242,0.3287337,0.3409465,1.0104891507599574
0.8956578,0.3287787,0.3352351,1.011276866415197
0.8936506,0.3289811,0.3337223,1.0090641865386265
0.8919509,0.3293734,0.3355077,1.00828005107592
0.893477,0.3282545,0.335714,1.009334461957606
0.8925418,0.3279878,0.3349697,1.0081723868536423
0.8927938,0.32772,0.3331421,1.0077027470989894
0.8953176,0.325654,0.3326787,1.009118055541298
0.894065,0.324484,0.3324932,1.007568269908913
0.8912741,0.3253689,0.3301487,1.0046056970422326
0.8899613,0.3269544,0.3290882,1.0036081598693236
0.8908132,0.3282084,0.3261624,1.0038181221210145
0.8924296,0.32801,0.3260504,1.0051517370010958
0.8914326,0.3273912,0.3312213,1.005755749550501
0.8900256,0.3279553,0.3323263,1.005057718305342
0.888991,0.327869,0.3322732,1.0040958911778497
0.8886293,0.3280808,0.3318211,1.0036953155974875
0.8916293,0.3306686,0.3327213,1.0074959032761075
0.8925197,0.3326743,0.3389954,1.0110299134989726
0.8899913,0.3320397,0.3422442,1.0096860744238378
0.8901492,0.3305572,0.3389402,1.0082232490418577
0.8905142,0.3300951,0.333818,1.0066840480357528
0.8894624,0.3286937,0.3339076,1.0053244226473412
0.8878396,0.3261892,0.3317389,1.002351858030906
0.8857135,0.3262276,0.3251429,0.9983139568815114
0.8884222,0.3280704,0.3305578,1.0030915471430513
0.8918929,0.3306609,0.3371678,1.0092034984164788
0.8900831,0.3321354,0.3367854,1.007961435022159
0.8903942,0.3285028,0.3359275,1.0067587626922996
0.8944689,0.3247881,0.3318371,1.007808406347769
0.8961324,0.3268207,0.3340157,1.01065896133401
0.8934773,0.3299158,0.3371931,1.010368896687017
0.890288,0.3307427,0.3345686,1.0069456810837663
0.8915183,0.3307555,0.3367501,1.0087639515095441
0.8925483,0.3288778,0.3382346,1.0095571899614653
0.8909518,0.3260508,0.3382241,1.0072237963455242
0.8918114,0.3246627,0.3397277,1.0080418404453955
0.8920146,0.3256156,0.3400502,1.0086375484268668
0.8909642,0.3286841,0.3400522,1.0087050817752876
0.8911639,0.3306964,0.3353018,1.0079486607557997
0.8899087,0.3319515,0.3302852,1.0055931612868994
0.8905237,0.3307396,0.3294259,1.0054563972946118
0.893492,0.3266767,0.329102,1.006654730675265
0.8948575,0.3265046,0.3310934,1.0084632063942491
0.8948817,0.3260845,0.3329932,1.0089741470332032
0.8939622,0.3253589,0.3340274,1.0082663997123031
0.8944828,0.329848,0.3374176,1.0113109410016288
0.894822,0.3312021,0.3404837,1.0130796576252532
0.893954,0.328285,0.3391443,1.0109122867803566
0.8947524,0.326296,0.3339761,1.0092526801019506
0.8937362,0.3259144,0.3322885,1.0076706994599227
0.8900709,0.3273468,0.3356225,1.005994332490646
0.885479,0.3289336,0.3369375,1.0028944368956336
0.8837279,0.3312252,0.3356522,1.001672368451027
0.8880136,0.331002,0.3350931,1.005195435453509
0.8900161,0.3287373,0.3341437,1.0059069951641602
0.8886969,0.3293781,0.3317871,1.0041687072178809
0.8892,0.3293558,0.3299656,1.0040065638117113
0.8884935,0.3297828,0.3303808,1.0036577443166221
0.888072,0.3314134,0.33247,1.0045113338253382
0.8905458,0.3312296,0.3346014,1.0073445124165616
0.8918339,0.3319339,0.3358894,1.009142957261646
0.892522,0.3313932,0.3345728,1.0091362306398874
0.8966299,0.3291308,0.3318993,1.0111525139281115
0.8964398,0.3271323,0.3312252,1.0101138499408717
0.8897431,0.3244608,0.3310784,1.0032599372449844
0.8876555,0.3262813,0.3325032,1.0024720202679873
0.8879393,0.3302082,0.3347823,1.0047650691704106
0.888698,0.3292085,0.3341038,1.0048819437380145
0.891469,0.3290037,0.3348577,1.007516794809883
0.8903672,0.3314821,0.3389847,1.008734236699806
0.8907846,0.3322181,0.3414216,1.010165718340971
0.8933144,0.3321223,0.3377803,1.0111435953774022
0.8915847,0.3319466,0.3323988,1.0077702043457577
0.8887103,0.3329406,0.3317647,1.0053473313340717
0.8869801,0.3347665,0.3330827,1.0048613796726145
0.8892262,0.3348422,0.3364781,1.0079980384142073
0.8927778,0.3345364,0.3387251,1.0117813481517683
0.8937729,0.3331169,0.3369882,1.0116115424308187
0.8965633,0.3293998,0.3375172,1.0130389130940478
0.8980462,0.3263785,0.3377067,1.0134375747038296
0.8955928,0.3252741,0.3366685,1.0105619142016484
0.8940028,0.3234481,0.3351373,1.0080558960954198
0.8941203,0.3219655,0.3334956,1.0071406104818235
0.8945614,0.3272385,0.339411,1.0111997632383078
0.89362,0.3339339,0.3456118,1.014650713432189
0.892123,0.3337505,0.3434993,1.0125535109216401
0.8916047,0.3318746,0.3426247,1.0111831566226466
0.8898894,0.3308379,0.344475,1.0099603387924547
0.8873532,0.3300327,0.3393089,1.0057076186639633
0.8860582,0.3298017,0.3335629,1.002562967282624
0.8882619,0.3288759,0.3360865,1.0050486038369837
0.8918264,0.3293979,0.3351686,1.0080651242292484
0.8901739,0.3311967,0.3286622,1.005047097424265
0.8884317,0.3323254,0.3277138,1.0035673329480639
0.8896972,0.3322061,0.3314251,1.0058650990441313
0.8893227,0.3315514,0.3334544,1.0059885846552188
0.8908919,0.3330013,0.3329161,1.0076762242538573
0.8926087,0.3365237,0.333571,1.010578103868464
0.8928204,0.3398224,0.3341592,1.0120622022102
0.8937808,0.338397,0.3353961,1.0128411484299253
0.8922391,0.3339489,0.3375868,1.0107310853606215
0.8911363,0.33275,0.331447,1.0073249632004013
0.8902987,0.3317313,0.3254817,1.0042986446551991
0.8894392,0.3316781,0.3305312,1.0051683076428992
0.8907,0.3345031,0.333885,1.0083243561149409
0.8883089,0.3349086,0.3314021,1.0055266401530991
0.8867206,0.3345733,0.3312619,1.0039657175067582
0.8895662,0.333931,0.331749,1.0064270147131584
0.8920645,0.3325621,0.3299565,1.0075951143236603
0.892954,0.3326957,0.330294,1.0085372582857264
0.8897766,0.3316948,0.3315504,1.0058078872203977
0.8890478,0.3316434,0.3321875,1.0053565887806426
0.8915818,0.3320615,0.3354454,1.0088144340039202
0.8898125,0.3298106,0.3356597,1.0065827095836188
0.889723,0.3290835,0.3337998,1.0056466940140012
0.8903102,0.3312031,0.3356942,1.0074911124110675
0.8888874,0.334474,0.3351958,1.0071493885677536
0.8906706,0.3354986,0.3336148,1.0085396685730115
0.8907626,0.3342909,0.3347007,1.0085796815135926
0.8895786,0.3347811,0.3351121,1.0078336122900347
0.8907223,0.3343313,0.3370232,1.0093306055080367
0.8902213,0.3316636,0.3384098,1.0084720617224308
0.8898732,0.3291934,0.3360455,1.0065630555270992
0.8897005,0.3295405,0.3356824,1.006402799335465
0.8883755,0.3322685,0.3363772,1.006361270008112
0.8890451,0.3322605,0.3349027,1.006458170100253
0.8895205,0.3315387,0.3342127,1.0064108298101875
0.8883294,0.3324152,0.3323758,1.0050386363324746
0.8892703,0.3327186,0.3287038,1.004763415627027
0.8931325,0.3337451,0.327434,1.0081093584955254
0.8940495,0.3344736,0.3305105,1.0101654756313245
0.8903575,0.3346211,0.3342323,1.0081760703045624
0.8896458,0.3348791,0.3335323,1.0074013382052558
0.8907925,0.3325437,0.332957,1.0074507205391934
0.8899462,0.327654,0.3346902,1.0056733627706762
0.8900492,0.3238441,0.3344367,1.004445362293211
0.8885787,0.3266364,0.3329949,1.0035681577873323
0.8872366,0.3322926,0.3313864,1.003705187044124
0.8902702,0.3323304,0.3316068,1.0064728479091922
0.8926761,0.3314126,0.3325699,1.0086167108153523
0.8918444,0.3313907,0.3322703,1.007774668326179
0.8914243,0.3297931,0.3358615,1.0080693024888467
0.8937801,0.3297283,0.3406732,1.0117419869587008
0.8947741,0.3293269,0.3405393,1.01244452289442
0.8922715,0.3296109,0.3381039,1.009507811909482
0.8902097,0.3311302,0.3363799,1.007607044660834
0.889838,0.3295393,0.3346641,1.0061848122076282
0.8907223,0.3286198,0.3318634,1.0057387856341675
0.8912496,0.3292361,0.3311403,1.0061690500743201
0.8916344,0.3282405,0.3327129,1.0067033341208422
0.9910332,0.1094158,0.2113051,1.0191999146771402
0.9893183,0.1073046,0.2132171,1.017706493851965
0.9869515,0.1086241,0.2131233,1.0155264641829627
0.988288,0.11091,0.2147468,1.0174135772409567
0.9901943,0.1104904,0.2201106,1.0203634433264501
0.9927259,0.1097096,0.2236473,1.023503309061705
0.9950992,0.1066818,0.226218,1.0260497102070054
0.9953133,0.106112,0.2208532,1.0250290033219207
0.9948041,0.1082707,0.2113563,1.0227557026998138
0.9921356,0.1085168,0.2123067,1.0203837903134731
0.9919733,0.112607,0.2134729,1.0209123583326336
0.9909997,0.1163507,0.2094749,1.019557563122647
0.9845296,0.1167078,0.2096084,1.0133385047493064
0.9842626,0.1168917,0.2114776,1.0134886830100325
0.9887248,0.1132703,0.2176281,1.0187094192686843
0.9919638,0.1080445,0.2259854,1.0231007748525314
0.9943662,0.1049986,0.2238175,1.02463804292572
0.9931057,0.1092195,0.218328,1.0226704973434697
0.9943969,0.1153489,0.2178911,1.0245033406095023
0.9961395,0.1122087,0.2181036,1.025891746798316
0.9911078,0.1112606,0.2201701,1.0213463982739697
0.9872607,0.1138674,0.2225116,1.0184109615876147
0.988861,0.1116247,0.2215661,1.0195085520192069
0.9906414,0.1111624,0.2186537,1.0205571532704134
0.9895349,0.1092638,0.2157208,1.0186527179864049
0.9875324,0.1052534,0.2170921,1.0165763616884518
0.986709,0.1057711,0.2200063,1.016457056798712
0.9907383,0.107374,0.2215241,1.0208645756630503
0.9969388,0.108836,0.2262147,1.0280590140344716
0.9946597,0.1088916,0.2277606,1.026196954910221
0.9913465,0.1085604,0.2240459,1.0221300351800744
0.9919703,0.1104128,0.2223902,1.022571984528214
0.9897855,0.1096587,0.2184945,1.019529407631869
0.9905432,0.1077668,0.2156122,1.0194499178661598
0.9897865,0.1058789,0.2211214,1.0196971759230384
0.987428,0.1035463,0.2264858,1.0183475384314187
0.9927527,0.1070305,0.2266847,1.0239137680984811
0.9941217,0.1116981,0.2238756,1.0251217997047277
0.9921869,0.1113641,0.2201565,1.0224019228232457
0.9936879,0.1105112,0.2187289,1.0234601602539593
0.9928786,0.109246,0.2200878,1.0228300164557158
0.9939484,0.106871,0.2235712,1.0243724488549075
0.9950577,0.1066493,0.2267771,1.0261295008936202
0.993491,0.1081242,0.226638,1.0247341083181725
0.992038,0.108631,0.2237922,1.0227526760589971
0.9896715,0.108429,0.2212302,1.0198771138452367
0.9917247,0.1090131,0.2202558,1.0217212702079468
0.9944157,0.1089714,0.2198063,1.0242324735840687
0.9926632,0.1072483,0.2194781,1.0222783685800751
0.9926297,0.106368,0.2195703,1.0221736591148198
0.9921844,0.1076719,0.221295,1.0222497731366684
0.9893822,0.1097866,0.2229499,1.0201161174721287
0.9882677,0.1114786,0.2223369,1.0190849926394068
0.9894889,0.1105383,0.2228784,1.020285146503986
0.9918162,0.1077464,0.2241096,1.0225134591327196
0.9932784,0.1070621,0.2236072,1.0237501907471422
0.9916687,0.1063511,0.2227108,1.0219185229104812
0.9897157,0.1055251,0.2201543,1.0193824745231743
0.9929103,0.1067944,0.2173442,1.0220148770889248
0.9957493,0.1067797,0.2203878,1.0254215499839177
0.9927233,0.1083371,0.2276467,1.024236055614227
0.9896896,0.1108474,0.2306094,1.0222295954448197
0.9889968,0.1080506,0.2275473,1.0205720828573992
0.9911923,0.1049041,0.2206449,1.0208580791040986
0.9940394,0.1040382,0.2153282,1.0224013446425235
0.991388,0.1049213,0.2203246,1.0209806928159073
0.9887598,0.1081843,0.2269181,1.0202164520189527
0.9898198,0.10901,0.2244512,1.0207863428521564
0.9888748,0.1089528,0.2227395,1.019488581379473
0.9881398,0.1106715,0.2236037,1.0191501655349815
0.988707,0.1124087,0.2211577,1.019356648064837
0.9881239,0.1140162,0.2229875,1.0193684126800773
0.9897818,0.1116644,0.2316278,1.0226379552761768
0.991002,0.10856,0.2357335,1.02442204223955
0.9889192,0.1115353,0.2291754,1.0212358548542497
0.9885643,0.1135915,0.22255,1.0196523459526488
0.9889387,0.1111746,0.2221544,1.0196627488940693
0.9878542,0.1106152,0.2216091,1.0184312623498408
0.9873182,0.1114197,0.2232049,1.018347683742316
0.9873556,0.1110373,0.2263087,1.019026982242541
0.9876792,0.1103404,0.2275478,1.0195406844602328
0.9874842,0.1083419,0.2270335,1.0190226801536362
0.9875272,0.1079685,0.2225451,1.0180341297157478
0.9887765,0.1118043,0.2235988,1.0198899900539173
0.9899187,0.1123782,0.2283134,1.022103175351926
0.9906639,0.1098381,0.230574,1.0230560788396792
0.990107,0.1113938,0.2335675,1.0233641713406278
0.9892984,0.1117108,0.2296313,1.0217246013573766
0.9899649,0.1098953,0.2271021,1.0216079698291856
0.9912059,0.1098732,0.2283872,1.0230943110959467
0.9916736,0.1088518,0.2255367,1.0228059671057312
0.9887651,0.1130535,0.2276309,1.020908097467676
0.9854624,0.118926,0.2277317,1.0184013268229033
0.9858953,0.1147298,0.2256435,1.0178739895794469
0.9858968,0.1112127,0.226771,1.0177356490427807
0.9832841,0.1130699,0.2220847,1.0143737169174436
0.981474,0.11248,0.2203645,1.012177591105558
0.9834651,0.1124078,0.2247414,1.0150604973560986
0.9858726,0.1136979,0.2273714,1.0181206949242951
0.9847764,0.1139813,0.227945,1.0172193557791014
0.9858381,0.1140167,0.229737,1.0186538452582898
0.9904847,0.1137669,0.2343269,1.0241640222802741
0.9926229,0.1144158,0.2297461,1.0252679978226473
0.9912774,0.1172163,0.2238316,1.022971715100183
0.9885031,0.1214307,0.2307794,1.0223223195628959
0.9868891,0.1228848,0.2333449,1.0215187771773262
0.9877101,0.1192637,0.2284504,1.0207764971039743
0.9897472,0.1168414,0.2271494,1.022178204904683
0.9916615,0.1178917,0.2285342,1.0244602794060782
0.9918234,0.1166242,0.2294531,1.0246773081867335
0.9906374,0.1143732,0.2262487,1.0225615685173632
0.9894173,0.1150146,0.2253097,1.0212440514718018
0.9875761,0.1148744,0.2323376,1.0210207840393506
0.9854855,0.1132656,0.2384982,1.0202412255230868
0.9854503,0.1141597,0.2364688,1.0198344102096282
0.9858803,0.1160997,0.2326268,1.0195853737409242
0.9842175,0.1168528,0.2337067,1.018311094803047
0.9849005,0.1169818,0.2325272,1.0187161700745355
0.9886036,0.1162112,0.2282634,1.0212474238488731
0.9919291,0.115732,0.2258039,1.0238674897202371
0.9942373,0.1152963,0.2253417,1.0259531798595245
0.9917976,0.1164601,0.2290399,1.0245412193024641
0.9860739,0.1236797,0.2343644,1.0210607604058928
0.9821697,0.1300171,0.2401439,1.0194267303723745
0.9824385,0.1272322,0.2391638,1.019103901586845
0.9857071,0.1220992,0.2328086,1.0201600589441884
0.9856102,0.1198765,0.2359353,1.0205210960006559
0.9853908,0.1164817,0.2351114,1.0197256423026195
0.9853024,0.1157387,0.2289636,1.018155487265285
0.9823209,0.119787,0.2297902,1.0159265780369418
0.9850837,0.120981,0.2288387,1.0185251341937418
0.9875474,0.1225317,0.2319063,1.0217849170600142
0.9853336,0.1242134,0.2351029,1.0205805434246382
0.9864652,0.1204512,0.2322656,1.0205730700620315
0.9871685,0.1189314,0.2341208,1.0214983476691726
0.9874673,0.121427,0.2351845,1.0223247693069655
0.9881133,0.1238587,0.2356711,1.0233522065143505
0.9879128,0.1241588,0.2343187,1.022884334219158
0.9892458,0.1227895,0.2302242,1.0230775612794614
0.9875905,0.1230711,0.2336802,1.0222954207162918
0.9841085,0.1220007,0.2369454,1.019557175029385
0.9835234,0.1212191,0.2373963,1.0190040980320247
0.9865952,0.1202152,0.2369596,1.0217493014464165
0.9904928,0.117132,0.2333003,1.0243168075629385
0.9887485,0.1196054,0.2322539,1.0226783081823043
0.9860907,0.1218865,0.2299797,1.0198636428076207
0.9863574,0.1185627,0.2270376,1.0190702165110166
0.985725,0.1176796,0.2306167,1.0191596176262332
0.9861988,0.1199939,0.2351579,1.0209240163161313
0.9863998,0.1215589,0.2351217,1.021294935569613
0.9854907,0.1208809,0.2332863,1.0199150011344034
0.9855388,0.120238,0.2332527,1.0198777990557153
0.9847554,0.1201062,0.2326494,1.018967340216535
0.9863831,0.1183695,0.229662,1.0196605281856603
0.9894552,0.1186176,0.2275949,1.0221991813452063
0.9884792,0.1214558,0.2314334,1.0224500275425885
0.9857823,0.1238385,0.2389325,1.021856866998402
0.9831962,0.1256231,0.2400493,1.0198429277974819
0.9826342,0.1246296,0.2376083,1.0186069960660442
0.9839035,0.1208541,0.2366418,1.01915217328243
0.9832153,0.1187974,0.2348106,1.0178217752991974
0.9838096,0.120036,0.2361156,1.0188427488633955
0.9872542,0.1216164,0.2379086,1.0227716783918883
0.9893721,0.121164,0.2368941,1.0245275407568213
0.9875955,0.1225126,0.2364922,1.022879645627896
0.9848299,0.1264108,0.2345034,1.0202261841877074
0.9861343,0.1269825,0.2337841,1.0213914129047443
0.9868495,0.1258417,0.2352018,1.0222660885661716
0.9851827,0.1258024,0.2331392,1.020178946460713
0.9855321,0.1254242,0.2322452,1.0202659373903895
0.9846232,0.1256402,0.2332749,1.0196496872967156
0.9843419,0.1250923,0.2314674,1.0188985311981071
0.9862728,0.1245007,0.232031,1.020819692835777
0.9860399,0.1253684,0.2353489,1.0214602414395677
0.9861477,0.1249709,0.2362942,1.0217338014452393
0.9862528,0.1242425,0.235545,1.0215734096672104
0.9859882,0.1225956,0.2346853,1.0209209576234048
0.9873155,0.1198442,0.2375508,1.0225384645061182
0.9876054,0.1205233,0.2417452,1.02388038054994
0.9873879,0.122105,0.2402501,1.0235060364460093
0.9866046,0.1225188,0.2378609,1.0222413124323484
0.9856797,0.1236617,0.2375826,1.0214216459727785
0.9866023,0.123335,0.2357506,1.0218483086988255
0.9879235,0.1245161,0.2339648,1.022857091020295
0.9893596,0.1264513,0.2345643,1.024618348566109
0.9886575,0.1242088,0.2350878,1.0237859893613166
0.9856917,0.124841,0.2334646,1.0206268280733413
0.9842081,0.1268862,0.2330238,1.0193457623507787
0.9844139,0.1253949,0.2335653,1.0194838678582951
0.9856649,0.1248668,0.2324312,1.0203682058784906
0.9873454,0.1222684,0.2298954,1.021103518494026
0.9887102,0.1218728,0.2266582,1.0216529638733105
0.9860115,0.1268166,0.2267108,1.0196562729687146
0.9813909,0.1283926,0.2261289,1.015257128885476
0.9835497,0.1278949,0.2236015,1.0167225524292995
0.9870076,0.1256891,0.2309386,1.0214276231268322
0.9891916,0.1214445,0.2406668,1.0252654762124052
0.9927825,0.1192877,0.2384906,1.0279710180573671
0.9887719,0.1221051,0.2314696,1.0228185085340311
0.9827586,0.1272584,0.2277989,1.0168094733457838
0.9835898,0.1256282,0.2292407,1.017734070293301
0.9851099,0.1262412,0.2337916,1.0203121423789927
0.9866244,0.1314183,0.2354428,1.0228058409698735
0.9865419,0.1281316,0.2345736,1.0221092902381477
0.9849994,0.1247187,0.2336884,1.0199945296052377
0.9848205,0.1238006,0.2324533,1.0194275562596393
0.9833002,0.1237025,0.2307477,1.017558889146756
0.9854571,0.1280824,0.2286127,1.0197031743264606
0.9891892,0.127897,0.2295672,1.0235008623941066
0.9871036,0.125405,0.2316322,1.0216425046144075
0.9858153,0.1250082,0.2300536,1.0199919189161697
0.9857976,0.1242039,0.2297131,1.019799796652549
0.9848965,0.1246687,0.231384,1.0193635052953092
0.9864594,0.1236247,0.2334079,1.0212073550855674
0.9865539,0.1250591,0.236841,1.0222631928124086
0.9855123,0.1286347,0.2369507,1.0217274654847397
0.986254,0.1277014,0.2321731,1.02122913611078
0.9852619,0.1275592,0.2269107,1.0190686075386388
0.9841831,0.1288016,0.2251817,1.0177981256138469
0.9850775,0.131051,0.2228348,1.0184337944600474
0.9856693,0.134822,0.2179915,1.0184504085711488
0.9862652,0.1340278,0.220647,1.0194937932684436
0.986316,0.1314363,0.2277014,1.020755935753327
0.9860253,0.1304045,0.2317964,1.0212643129539483
0.9873067,0.1300021,0.2323229,1.0225697999323615
0.988532,0.130976,0.2285539,1.0230284027363121
0.9877041,0.1302647,0.2294068,1.022328597423128
0.9845781,0.1283698,0.231321,1.0195009787109819
0.9824144,0.1276345,0.2301636,1.0170564889339089
0.9842468,0.1270379,0.2344727,1.0197341998736436
0.9855058,0.126301,0.2362459,1.0212667377827644
0.9842115,0.124698,0.2353241,1.0196074244419076
0.9837348,0.1255068,0.2355437,1.019297281555764
0.9831465,0.1281656,0.2286152,1.0174813861475058
0.9822958,0.1268837,0.2229666,1.0152431318353698
0.9828456,0.1256673,0.2264135,1.0163861553124875
