accx,accy,accz,Total_Acceleration
1.426164,-0.3624851,0.2789144,1.4977090655882972
1.496596,-0.5911266,0.1201374,1.6135870721229517
1.305815,-0.6455474,0.01258737,1.4567232756276247
0.9738244,-0.5438376,-0.001186083,1.1153899336115611
0.6913776,-0.4242498,-0.01527766,0.8113102276422229
0.6492949,-0.2887083,-0.0715838,0.7141852631336914
0.8106172,-0.2222879,-0.1222358,0.849384333634598
0.9734472,-0.2824559,-0.1586777,1.0259431753805568
1.040501,-0.3107249,-0.1508142,1.096328973165742
1.043094,-0.3411343,-0.1204699,1.1040519463677876
1.016086,-0.4059134,-0.1130565,1.0999900999044538
0.8536427,-0.3432047,-0.03316718,0.9206494377310684
0.6200492,-0.2385227,0.05045887,0.6662583480884925
0.5921955,-0.2058805,0.01613476,0.6271703285238848
0.764442,-0.1787409,-0.04655976,0.786439884509978
0.8930882,-0.1682792,-0.1129415,0.9157948485081853
0.954825,-0.1519501,-0.150845,0.978536574451875
0.9965834,-0.1199801,-0.1239596,1.0114048052010283
0.9591872,-0.1070872,-0.09360076,0.9696746131152747
0.9362187,-0.05984992,-0.0642393,0.9403266213492981
0.9660956,-0.01147108,-0.08084611,0.9695402970056781
0.9836843,-0.01565788,-0.1356187,0.9931124825830527
1.02707,-0.09324445,-0.1364892,1.0402867941449812
1.07299,-0.2432327,-0.1042096,1.1051376960277168
1.113724,-0.3189828,-0.03725875,1.1591028381137725
1.20634,-0.2866906,0.04911245,1.2409108463033767
1.326766,-0.213357,0.04328426,1.3445083693933435
1.383976,-0.07533852,-0.06431195,1.3875163019166994
1.338608,0.01665338,-0.1826335,1.3511120264625263
1.196393,-0.04971595,-0.2131508,1.2162488025375575
0.9511511,-0.186014,-0.1679986,0.9836224645813911
0.7868964,-0.3603865,-0.1725883,0.8825367386189088
0.8559308,-0.5385827,-0.2312652,1.0373873200781711
1.079928,-0.600819,-0.3064754,1.2732459019176776
1.397661,-0.6158959,-0.3648347,1.570314741980696
1.531087,-0.5873186,-0.3011638,1.6672942673401718
1.325995,-0.3979763,-0.191277,1.397581756505032
1.111877,-0.1820091,-0.1245712,1.1335412473665216
0.9403184,-0.04803354,-0.04031787,0.9424072606812983
0.7874425,-0.02305072,-0.01010319,0.7878445918751645
0.8005,-0.09977434,-0.03482441,0.8074452974996409
0.7746061,-0.1715408,-0.01920838,0.7936055809305238
0.6855571,-0.2655823,-0.01045425,0.7352766736248081
0.6757468,-0.3039359,0.001713908,0.7409545913884888
0.6084948,-0.264507,0.05622584,0.6658762796193791
0.5200255,-0.2892875,0.1374895,0.6107512921940894
0.5084297,-0.2508146,0.1935076,0.5990441675477777
0.5794683,-0.1579257,0.138866,0.6164477296424897
0.7328944,-0.1585314,0.08160128,0.754271287558368
0.9133838,-0.2062404,0.1004191,0.9417478772683323
1.105895,-0.262104,0.098844,1.1408209299346679
1.246056,-0.2540783,0.122702,1.2776020970830042
1.337964,-0.1735189,0.1713068,1.3600009167936065
1.376512,-0.07398542,0.1818529,1.3904422338792024
1.331481,-0.01360226,0.2516868,1.3551283777311829
1.347578,-0.1255195,0.308532,1.3881331369822743
1.401607,-0.3784688,0.1549877,1.4600554791423954
1.407725,-0.6159343,-0.06608585,1.5379961238935917
1.272945,-0.6488126,-0.09871717,1.4321633435458991
0.8764992,-0.4226665,-0.02657469,0.9734495528641873
0.5792235,-0.2295824,0.01270148,0.6231928023783654
0.7130404,-0.2234937,0.02575944,0.7476895042201432
0.990639,-0.3007356,-0.09551735,1.039678360638223
1.094669,-0.3959507,-0.2485766,1.190322436341956
1.016552,-0.4693631,-0.1547907,1.1303273194752483
0.8485091,-0.5214301,-0.01946882,0.9961104742552466
0.7518578,-0.4736743,-0.04555395,0.8897936031810594
0.7364702,-0.324127,-0.06816326,0.8075226917126649
0.6958857,-0.2070821,-0.1003583,0.732947264121908
0.7869642,-0.1265894,-0.1389146,0.809095046559525
0.9654996,-0.1080033,-0.1211135,0.9790417101907865
1.000556,-0.1161962,-0.1286028,1.0154568165108155
0.9389306,-0.1040736,-0.08877885,0.9488433327165463
0.8756684,-0.1453178,-0.02171999,0.8879099997865775
0.9091745,-0.1683756,-0.03461636,0.9252820686175971
0.9460272,-0.1730359,-0.06483544,0.963904829383401
0.930034,-0.2094532,-0.1022279,0.9587932142462472
0.9999721,-0.2204243,-0.09968515,1.0288188382506527
1.069878,-0.2040129,-0.06151495,1.0908915103363455
1.15435,-0.1421766,-0.04023758,1.1637685211981876
1.221505,-0.07700857,-0.003519481,1.2239351174081714
1.204654,-0.02243719,-0.04095371,1.2055587474585634
1.288103,0.009117527,-0.1424557,1.2959884622827804
1.359225,-0.0658364,-0.2139737,1.3775383030905708
1.276283,-0.1599356,-0.2362988,1.3077900500912982
1.076126,-0.3315916,-0.1846732,1.1410978695382792
0.8669211,-0.6233036,-0.163715,1.08021394761555
0.9587646,-0.7040854,-0.1942184,1.20527448973455
1.263684,-0.5842106,-0.2160512,1.4088567698775487
1.464505,-0.5581764,-0.2538961,1.5877024337504713
1.493945,-0.5112067,-0.2334269,1.5961491380173407
1.292912,-0.3294885,-0.1429707,1.3418735903335828
1.047295,-0.1416385,-0.05622035,1.0583236789665875
0.9645337,-0.03860658,-0.0179184,0.965472317321189
0.9006208,-0.1029532,-0.04942442,0.9078325616958319
0.7600779,-0.168892,-0.04915939,0.7801663715885105
0.6398192,-0.146537,-0.01934057,0.6566702054346344
0.6877372,-0.2335435,-0.008259479,0.726356139679043
0.7426131,-0.298238,0.06560755,0.8029473653687473
0.6773995,-0.2900443,0.1312795,0.7484851940305767
0.7175411,-0.2548073,0.1310829,0.772641389646523
0.7382082,-0.1234531,0.1307161,0.7597885977336458
0.7372405,-0.08582696,0.1147542,0.7510381803348826
0.8667196,-0.09828777,0.1106002,0.8792586394206047
0.9183915,-0.1071499,0.1294421,0.9336376736157715
1.001048,-0.1912816,0.1380148,1.0284618776705337
1.163369,-0.2253836,0.1523866,1.1947580814413938
1.282451,-0.2404042,0.1613063,1.314722202291545
1.357326,-0.1938519,0.2012056,1.3857835772157823
1.253604,-0.1092075,0.299938,1.2936042944874022
1.196838,-0.15502,0.3577197,1.2587357873724296
1.349116,-0.3162551,0.2567204,1.4092681198083528
1.427974,-0.5878265,0.03297598,1.544583165140424
1.286065,-0.6873997,-0.09655271,1.4614390023512558
0.9750182,-0.4243814,-0.05422318,1.0647535941458532
0.7788726,-0.1742333,-0.00498936,0.7981382484086699
0.8748163,-0.1577877,-0.03018691,0.889444639397151
1.029084,-0.2267396,-0.06541747,1.055795515545203
1.053002,-0.2519183,-0.09329114,1.0867287051888292
1.018508,-0.2894954,-0.09180321,1.0628235799282326
0.9389663,-0.40006,-0.03065404,1.02110008633043
0.8297883,-0.4930949,0.0009188055,0.9652419631504046
0.8263407,-0.4467831,-0.009164144,0.9394349751086303
0.7609493,-0.2596498,-0.02818374,0.8045223297155386
0.6148995,-0.1109235,-0.07798475,0.6296721680248084
0.6900082,-0.09667484,-0.09661184,0.7034139523669197
0.8628564,-0.1116943,-0.1177332,0.8779851308853072
0.966143,-0.07061599,-0.1546352,0.9809846887549877
0.9882246,-0.03720683,-0.1157207,0.9956723801794941
0.9108504,-0.04744091,-0.05599091,0.9138019879188358
0.9076175,-0.009914935,-0.03862658,0.9084931727452884
0.9674527,0.000235972,-0.06134936,0.9693959595503194
0.9931327,-0.05132552,-0.09737316,0.9992138915672389
1.036999,-0.09992333,-0.1166801,1.0483157175275486
1.04868,-0.209751,-0.1055337,1.07464533044009
1.074344,-0.2461725,-0.05107995,1.103369879679635
1.216287,-0.1705174,-0.005988911,1.2281962860743088
1.376868,-0.1210591,-0.003559743,1.3821843100278037
1.39487,-0.04957974,-0.06452843,1.397241706290194
1.274773,-0.0171769,-0.1586922,1.284727388111365
1.155721,-0.10878,-0.1828467,1.1751412825451628
1.017681,-0.2996128,-0.178347,1.0757555949628337
0.9436047,-0.5276002,-0.218725,1.1029924870674006
1.065832,-0.6567762,-0.2845898,1.2838785703385192
1.223122,-0.6486073,-0.3259199,1.4223018799514047
1.393656,-0.5811338,-0.2902744,1.5376126843694415
1.453646,-0.4724451,-0.1969488,1.5411294220964864
1.261641,-0.2253715,-0.103342,1.2857721006684077
1.077507,0.01241755,-0.05988911,1.0792415096231216
0.9101534,0.01473926,-0.05780967,0.9121065810871098
0.7679288,-0.08076534,-0.0537732,0.7740343913890361
0.7598749,-0.1887786,-0.06047959,0.7853056756922989
0.7171687,-0.2794198,-0.0528802,0.7714938006515476
0.6652632,-0.2943472,0.0101705,0.7275430148742617
0.630755,-0.3112789,0.09021045,0.7091433909297981
0.5814143,-0.2656996,0.1306345,0.6524601430546544
0.6077832,-0.1385958,0.1349372,0.6378222808304207
0.6819597,-0.06053135,0.1503974,0.7009653733842154
0.8203052,-0.06810532,0.1541867,0.8374440245271516
0.9563517,-0.1396625,0.1396944,0.9765391509768055
0.9978213,-0.2075203,0.1596536,1.0316013249500702
1.070344,-0.2294313,0.1846688,1.1101250224407744
1.24257,-0.2027343,0.2139384,1.2770477830884208
1.452904,-0.1591535,0.2505601,1.4829161249006162
1.528028,-0.1589901,0.2571885,1.5576563630063789
1.47954,-0.2607347,0.2348461,1.5205834031940832
1.513038,-0.5073378,0.07837376,1.597754073382189
1.460993,-0.6530127,-0.1205918,1.6048266307104735
1.099408,-0.456814,-0.07343491,1.1927990891456566
0.683668,-0.1962359,0.0615721,0.713933880811956
0.6776228,-0.1404035,0.04183842,0.693279348661264
1.00261,-0.1869357,-0.06928667,1.0222389205436169
1.104948,-0.2770681,-0.1883198,1.154617322671737
0.9880206,-0.4367242,-0.1559439,1.091435400212587
0.9259822,-0.5515076,-0.05736987,1.0793030017369623
0.8857326,-0.5180925,-0.09723387,1.0307262016336767
0.7819057,-0.3759581,-0.05933336,0.8696214488252861
0.6067965,-0.2402149,0.01159156,0.6527170557427571
0.628278,-0.2231557,-0.04897065,0.6685281118157355
0.8195682,-0.2249635,-0.07686409,0.8533514511120363
0.9491415,-0.127852,-0.1572189,0.9705325875226756
1.086451,-0.1013376,-0.2253275,1.1141891970536288
1.011428,-0.1301598,-0.1156255,1.026302795947809
0.8451921,-0.07320459,-0.02330188,0.8486763667682826
0.8843438,-0.08475579,-0.01056114,0.8884587993908686
0.897613,-0.1405665,-0.05541708,0.910241227064
0.9629572,-0.1536034,-0.1151676,0.9819084222131715
1.029785,-0.2017282,-0.1172864,1.055891809100345
0.9813777,-0.180844,-0.0951237,1.0024246907847891
1.043024,-0.1268695,-0.03540849,1.05130808794108
1.08116,-0.115498,0.009468052,1.0873529222900329
1.107853,-0.06135034,0.005369661,1.1095634128279332
1.223435,-0.04487971,-0.01588304,1.2243609184200244
1.270435,-0.09904627,-0.1153221,1.2794977294135081
1.261887,-0.1861595,-0.2407711,1.298069675635503
1.162313,-0.3072574,-0.2476601,1.2274828491493353
1.03519,-0.5065421,-0.2408561,1.1773762763363376
1.076945,-0.7313113,-0.3372989,1.3447666334624384
1.24991,-0.724624,-0.3609702,1.4891791143996214
1.40095,-0.6533609,-0.3220202,1.5789991695238
1.384228,-0.6464189,-0.2765315,1.552550875415508
1.198223,-0.3880879,-0.1031585,1.2637215880001655
0.995021,-0.08514217,0.003277248,0.9986624654545511
0.9015916,0.007743022,-0.03899231,0.9024675993183294
0.9013345,0.0219506,-0.08197697,0.905320900753424
0.8754379,-0.04881703,-0.1256987,0.8857622606298604
0.7928636,-0.1386354,-0.1026755,0.8114152578294113
0.6954148,-0.2120103,-0.02565917,0.7274671843940583
0.6098924,-0.2755372,0.0726063,0.6731724615292057
0.5870093,-0.2692955,0.1839232,0.6715115249234223
0.6351918,-0.2613595,0.1867818,0.7118039419943738
0.6857693,-0.2226248,0.1358523,0.7336873869795092
0.735412,-0.1448793,0.120243,0.7591305555446243
0.7813207,-0.1164351,0.1189852,0.7988595912796815
0.8229514,-0.1204526,0.1265776,0.8412964545452929
0.9705836,-0.1361724,0.1297448,0.9886400559545219
1.213052,-0.1262369,0.1386277,1.2274561290868606
1.430871,-0.06893887,0.1361869,1.43898966576188
1.516583,0.01866574,0.1413324,1.5232686082987819
1.432665,0.02850048,0.2256764,1.4506106014717355
1.386131,-0.1835149,0.2942016,1.4288426957246099
1.450816,-0.4907455,0.1902629,1.5433399439989428
1.396772,-0.6559655,-0.006492056,1.543147725904865
1.090411,-0.6132721,-0.07931387,1.2535507598552948
0.6658573,-0.4384988,-0.01483942,0.7974129105743564
0.5714407,-0.2444688,0.003794633,0.6215495692457157
0.9210744,-0.1795957,-0.09731245,0.9434523722577904
1.142666,-0.2673068,-0.1717507,1.1860172072245536
1.051402,-0.3107088,-0.1163107,1.1025036521190894
0.9260214,-0.3545397,-0.04666048,0.9926687425963812
0.8218086,-0.4385977,-0.0245719,0.9318482149732649
0.7867982,-0.3947523,-0.01193098,0.8803539823061463
0.7705204,-0.328215,-0.03703558,0.8383307266390135
0.7060631,-0.2395451,-0.0838773,0.7502948470907355
0.7965373,-0.1267105,-0.1295935,0.8168976045648499
0.9753789,-0.1423743,-0.1592695,0.9984994809692943
1.001678,-0.1334222,-0.1410009,1.0203144382677578
0.9715758,-0.09847273,-0.1264857,0.9847106407487344
0.9330839,-0.09380481,-0.0840755,0.941548509912578
0.8441407,-0.03292534,0.00194543,0.844784815268652
0.8426319,-0.03627693,-0.002977941,0.8434176917046703
0.8862085,-0.06333036,-0.06739426,0.8910208899071487
0.9118555,-0.0608943,-0.1072146,0.9201540844368947
1.058386,-0.1422604,-0.1411074,1.0771862627878803
1.217783,-0.2335457,-0.1179582,1.2455734285961346
1.241245,-0.2467139,-0.02939266,1.2658676182524322
1.209925,-0.1589295,0.05214458,1.2214320074480716
1.206247,0.003931032,0.04637032,1.2071443511852622
1.25511,0.08176948,-0.0676408,1.2595882810601686
1.262712,-0.04872412,-0.1676302,1.2747217417012289
1.128799,-0.3018943,-0.1944044,1.184533841438416
0.9296299,-0.5274833,-0.1961465,1.0867031941680994
0.8921931,-0.6865985,-0.229185,1.1488915493269416
1.138296,-0.7110001,-0.3319705,1.3825495791060296
1.441753,-0.6553714,-0.3827815,1.6293204294089025
1.533829,-0.6484034,-0.2790842,1.6884745663059897
1.389148,-0.5231748,-0.1208235,1.4893093551748375
1.108835,-0.2275232,-0.0129401,1.1320111792518879
0.8367131,0.01928996,0.02126951,0.8372056535428148
0.7527058,0.04328992,-0.03220739,0.7546372337075997
0.7897604,-0.08730489,-0.1130144,0.802568307269501
0.6967889,-0.1292865,-0.08848666,0.7141846114580008
0.6300677,-0.189006,-0.0008570248,0.6578064374197001
0.6609566,-0.2890069,0.07807452,0.7255923414730895
0.6027336,-0.2408607,0.1672608,0.6702819142645056
0.6126664,-0.2171456,0.1997821,0.6800185414889288
0.6679729,-0.1820341,0.2018475,0.7211564476266367
0.7171463,-0.09413959,0.2003351,0.750529966291199
0.8459372,-0.1155866,0.1761844,0.8717860696562889
0.9114597,-0.1188728,0.1834557,0.9373075915442166
1.054307,-0.1158512,0.1834526,1.076401229670981
1.316139,-0.1173996,0.1846281,1.3342009101746146
1.490814,-0.05304721,0.1984,1.5048930025369858
1.52327,-0.01108553,0.2307662,1.5406905662519716
1.354516,-0.02281484,0.351506,1.3995679973535498
1.225814,-0.241815,0.378188,1.3054197103479783
1.280609,-0.6211027,0.1174076,1.428115023156766
1.248986,-0.7523638,-0.2020937,1.4720255362343853
1.045444,-0.5291285,-0.2036895,1.1892937143777815
0.8885086,-0.2979496,-0.02820687,0.9375591308975221
0.9441241,-0.270422,-0.01916968,0.9822758527603702
0.9894093,-0.2575408,-0.04179311,1.0232324714524075
0.924865,-0.2794111,-0.03891473,0.9669333933830101
0.9234247,-0.400864,-0.06645229,1.0088711661616334
0.8973608,-0.4309772,-0.05743602,0.997144246681452
0.8530549,-0.4094248,-0.1008842,0.9515823406719409
0.8434508,-0.3574497,-0.1262342,0.9247240741434007
0.7262411,-0.2275196,-0.09564314,0.7670325377338497
0.6539452,-0.134575,-0.109478,0.6765649914916083
0.7921455,-0.1220776,-0.118221,0.8101688950046219
0.9461344,-0.1182012,-0.1379385,0.963415204533876
0.9722267,-0.05251129,-0.1308844,0.9824016072532221
0.902626,-0.03710597,-0.07461812,0.9064647884600788
0.8418464,-0.07428848,-0.04970348,0.84657815668595
0.8667836,-0.06476176,-0.0649116,0.8716199920847488
0.9492376,-0.1248108,-0.1138347,0.9641514901583101
1.072646,-0.1990903,-0.1178475,1.0973123630609198
1.173908,-0.2136527,-0.08494961,1.1962123159876101
1.203076,-0.2088641,-0.05069933,1.222123764643851
1.229151,-0.1394797,-0.006186517,1.237054986856155
1.242123,-0.06532863,-0.05176737,1.2449165584983573
1.228248,-0.05343192,-0.1173317,1.2349958896303164
1.228657,-0.1877882,-0.1563265,1.252717209233788
1.207391,-0.3724941,-0.2350393,1.285219185182162
1.171385,-0.3944063,-0.2436288,1.2597833702244723
1.149793,-0.4694286,-0.2634561,1.2695653862539613
1.122603,-0.6306899,-0.385014,1.3439654109265649
1.143909,-0.5929013,-0.3885285,1.3457392567414166
1.252495,-0.4991326,-0.2840121,1.3778751577534771
1.339514,-0.4418996,-0.1900109,1.4232628551307627
1.271933,-0.2755337,-0.07940932,1.3038551362891324
1.044966,-0.1720544,-0.06382547,1.0609572792229105
0.8194272,-0.1465578,-0.07496013,0.8357985079732416
0.7778016,-0.09594973,-0.02318418,0.78404029606386
0.8036508,-0.1639756,-0.06487617,0.8227706382521612
0.6907158,-0.1736278,-0.0721673,0.7158512753999744
0.6229778,-0.1387087,0.004383707,0.6382481176122589
0.6703234,-0.2347811,0.07296272,0.7139882240027271
0.6470397,-0.2184368,0.1948054,0.7101578365683856
0.667284,-0.1908708,0.1962298,0.721252891402648
0.7302707,-0.1775771,0.1407827,0.7646232342416689
0.7447096,-0.07064521,0.1814846,0.769753073436712
0.8122961,-0.08852745,0.1508409,0.8309121738135279
0.8629073,-0.1386296,0.1400753,0.8851261288988932
0.9589066,-0.1687559,0.168002,0.9880309171844625
1.210014,-0.1640678,0.1580893,1.2312775275977914
1.480297,-0.07163581,0.199357,1.495377581392859
1.590203,-0.02612195,0.2338577,1.607519008077383
1.430019,0.006944101,0.3299949,1.4676168420012452
1.312833,-0.148738,0.4211553,1.3867318649440092
1.384402,-0.4880017,0.2137807,1.483380175308872
1.276338,-0.6215452,-0.07928024,1.4218447462158088
0.9906831,-0.539942,-0.1244466,1.1351111506108862
0.8196411,-0.3669835,-0.06615729,0.9004805434331183
0.9026479,-0.2024102,-0.09983667,0.93043564050134
1.062744,-0.1411701,-0.1382588,1.0809575858688674
1.043682,-0.1851016,-0.1060447,1.0652606243753922
0.9285105,-0.2775662,-0.05776088,0.9708300897948438
0.7793763,-0.3743367,0.001483286,0.8646141232399213
0.7179202,-0.4609707,0.02244736,0.8534677989224313
0.7887219,-0.3938155,-0.03245946,0.8821714686631797
0.7507897,-0.2869758,-0.07438528,0.8072009993133114
0.7604902,-0.2407306,-0.09960268,0.8038763959313536
0.9008422,-0.1218739,-0.1388776,0.9195960551154023
0.9736352,-0.06792564,-0.1486784,0.9872611923270406
0.9907573,-0.02604408,-0.1063493,0.9967890926453933
0.9233421,0.05042618,-0.03991617,0.925579134320384
0.9023284,0.02385346,-0.03128462,0.9031856157230783
0.9628458,0.007789833,-0.05854831,0.9646557005894196
0.9774751,-0.03867771,-0.06528983,0.9804163902507358
1.024427,-0.1394086,-0.1195777,1.040761385919102
1.019275,-0.2086501,-0.1637873,1.0532248902757189
1.030851,-0.2414185,-0.1256817,1.0661766111006843
1.136975,-0.1921435,-0.05911402,1.154610645446252
1.171924,-0.1364475,0.03070041,1.180239932050436
1.20993,-0.08138027,0.04140946,1.2133705520667477
1.258377,-0.04724294,-0.09585967,1.2629068238953152
1.255813,-0.1347052,-0.2159592,1.2813470091823995
1.144744,-0.2941702,-0.2194349,1.202134188617082
0.9359311,-0.5062158,-0.1951544,1.0818071454544058
0.9312092,-0.6622132,-0.2326301,1.1661019080015649
1.169354,-0.6660752,-0.3066313,1.3802419003604876
1.454129,-0.6375002,-0.3492644,1.625694705271688
1.561948,-0.5507028,-0.2797368,1.6796451428519297
1.34899,-0.3143521,-0.116659,1.3900361812396862
1.086511,-0.09026159,-0.01807521,1.0904036046193502
0.9344586,-0.026877,0.0154616,0.9349728922902096
0.8350158,-0.03239946,0.003202614,0.8356502665555516
0.7890537,-0.04555792,-0.06233326,0.7928219856062545
0.7048452,-0.07925341,-0.06268351,0.7120513193482533
0.637845,-0.1186987,-0.03193698,0.6495810927807323
0.6470164,-0.1969708,0.06111412,0.6790895769962711
0.6409587,-0.2651578,0.2133183,0.7257006346431151
0.6558578,-0.252269,0.1901004,0.7279610321040544
0.6761404,-0.2083723,0.1352089,0.7203237484344522
0.7203222,-0.1436315,0.1754979,0.7551778548855229
0.8323295,-0.07802703,0.1493274,0.8492109787159084
0.8830969,-0.102015,0.1386319,0.8997143984133076
0.9788741,-0.157872,0.1511585,1.0029790447247937
1.212286,-0.1525656,0.1132755,1.2270879948070594
1.391948,-0.1400725,0.109765,1.4032775545790113
1.458939,-0.09502394,0.1280314,1.4676254952405547
1.427385,-0.03134648,0.1468467,1.435261123745181
1.40436,-0.100413,0.1846628,1.420003566852154
1.457977,-0.272045,0.2134178,1.4984166883450145
1.411646,-0.4120251,0.1893586,1.4826887035854728
1.177932,-0.4349377,0.0741894,1.2578547875560397
0.7901393,-0.4215915,-0.02112754,0.8958269248148281
0.5713827,-0.441427,0.006505376,0.7220653059836011
0.7727153,-0.3049183,0.01380888,0.8308157375109323
1.014525,-0.1344835,-0.099556,1.0282306086346826
1.114116,-0.1567012,-0.1712488,1.138040367930277
1.065798,-0.2455637,-0.08887772,1.0973268230905906
0.8444516,-0.3923565,-0.006289529,0.9311722107160694
0.8097476,-0.5051129,-0.02217014,0.9546317261435373
0.8477197,-0.4406092,-0.04090869,0.9562628706638389
0.7474753,-0.3583079,-0.04066771,0.8299142955445122
0.7711448,-0.2910608,-0.06110504,0.826507421489415
0.8527977,-0.1745412,-0.0913025,0.8752512177249341
0.9499976,-0.08970302,-0.1310237,0.9631766617628204
1.005196,-0.04349942,-0.1442395,1.0164232540219584
0.9094112,0.01523121,-0.08446916,0.9134526585623415
0.9036261,0.03404436,-0.0364589,0.9050018775882344
0.9643494,0.005000271,-0.06543789,0.9665799943295358
1.010049,-0.01850462,-0.09737556,1.0149006862977568
1.04217,-0.0635948,-0.1173756,1.0506853187145997
0.9969543,-0.1310055,-0.1577182,1.0178189170623524
1.002318,-0.1996694,-0.1714958,1.0363011395525916
1.034079,-0.2456196,-0.1354607,1.071446670343256
1.080558,-0.2479769,-0.07016511,1.110865102953064
1.163223,-0.210801,0.01811049,1.1823082504905562
1.17636,-0.1130294,0.05193699,1.1829184020018542
1.205133,-0.02325661,-0.04466144,1.2061845057123581
1.240025,-0.01353418,-0.1842325,1.2537092121818052
1.177969,-0.1150069,-0.2426482,1.2081869478569325
1.052163,-0.3265591,-0.2071536,1.1209819081299974
0.940872,-0.5151533,-0.1837321,1.0882924824950784
0.9712309,-0.6021265,-0.2378625,1.1672293485100989
1.17919,-0.5997104,-0.2896123,1.354258802548261
1.438008,-0.5630553,-0.3007544,1.5733249785220629
1.495319,-0.4682352,-0.2337032,1.5842475500912983
1.275332,-0.233911,-0.08702556,1.2995228025080259
1.034752,-0.05355787,-0.006579052,1.0361580144303066
0.9032712,-0.04328896,0.006447275,0.9043308919650193
0.8407954,-0.06201498,-0.01374026,0.8431912933317255
0.8294061,-0.08693259,-0.07096738,0.8369636329885441
0.7867704,-0.1335535,-0.05206932,0.7997220853294427
0.7211886,-0.1928585,0.008116526,0.7465743605204499
0.7099895,-0.2323514,0.06021406,0.7494651400925153
0.6926033,-0.2226675,0.1241668,0.7380362734645094
0.6620138,-0.2075001,0.1398012,0.7077167077382659
0.7105082,-0.1668293,0.1503059,0.7451481605563688
0.8119407,-0.1267083,0.160859,0.837363906247684
0.8883817,-0.1485902,0.1440751,0.9121725313069562
0.9226172,-0.187032,0.1451564,0.9525092373414549
0.9670275,-0.221148,0.14853,1.0030502402971897
1.124005,-0.2138157,0.1656117,1.1560846114227021
1.330951,-0.1195501,0.177911,1.3481005580935015
1.391111,0.02268653,0.2044303,1.4062347743255856
1.353094,0.08217535,0.3124897,1.3911383732719447
1.410427,-0.1100462,0.3533934,1.4581842762926092
1.489099,-0.4343256,0.1754092,1.5610326537459107
1.367724,-0.5905254,-0.02055293,1.4899032220761002
0.9989287,-0.5408721,0.03230998,1.136417665759249
0.5798994,-0.3908193,0.09882715,0.7062505539466659
0.5296504,-0.2411969,-0.01276557,0.5821240851976449
0.911064,-0.1981294,-0.100959,0.9378089309242902
1.165218,-0.2267901,-0.2004811,1.2038934373270835
1.091884,-0.2650142,-0.1942433,1.1402515754220777
0.9379418,-0.3679135,-0.05312623,1.008919005660763
0.7929321,-0.4595258,-0.08136796,0.9200684871196336
0.7382577,-0.4299935,-0.04198687,0.8553839716197265
0.7350156,-0.3996966,0.04190621,0.8377120237477101
0.7602889,-0.3558533,-0.06941458,0.8423117988611322
0.8895918,-0.2297491,-0.10715,0.9250077524421351
0.9599816,-0.175673,-0.1281965,0.9843068718036108
0.9364202,-0.1105818,-0.1424616,0.9536280369902304
0.9440222,0.04193465,-0.0737852,0.9478294597144059
0.953142,0.03860139,-0.08840201,0.9580107801303555
0.9286554,-0.04082269,-0.07094278,0.9322554488991333
0.9182171,-0.02480225,-0.05512737,0.9202047713746052
0.9609355,-0.06969883,-0.09017193,0.9676703669243695
0.9965904,-0.1425674,-0.09900585,1.0115928268078727
0.9998203,-0.1641399,-0.1536036,1.02478124738749
1.022956,-0.2247411,-0.1600698,1.0595139833136937
1.072041,-0.2505742,-0.1379906,1.1095497920665842
1.097358,-0.2204731,-0.1022502,1.1239475394286205
1.08982,-0.1575607,0.006560648,1.1011703086655895
1.164997,-0.04262279,0.008386096,1.1658066043913569
1.320901,-0.0179393,-0.09306594,1.3242969982120982
1.360315,-0.08395418,-0.1581242,1.3720453586489452
1.156663,-0.163766,-0.1448563,1.1771456774650662
0.8596863,-0.3254121,-0.1302595,0.9283970629931733
0.8103144,-0.528191,-0.2374228,0.9959742693906304
1.067333,-0.6409102,-0.3613097,1.2963449836625782
1.376077,-0.6627365,-0.3868657,1.5755864458028763
1.491129,-0.6616747,-0.2840221,1.6558827423913505
1.349675,-0.5097514,-0.1183183,1.4475732504926477
1.147199,-0.1918022,-0.04718808,1.164079183054111
0.9845764,-0.001564831,-0.03608686,0.9852387515712515
0.8588938,0.004046079,-0.06510673,0.8613674109954517
0.8291444,-0.04215786,-0.1253467,0.8396246282786312
0.7700172,-0.1086687,-0.1011019,0.7841919209218748
0.6717142,-0.1853469,-0.01228179,0.6969248755689914
0.6603339,-0.2556267,0.1211348,0.7183728203468864
0.6513314,-0.271997,0.2250519,0.7408531017202871
0.6492183,-0.2346907,0.2011728,0.7190511951045072
0.6983671,-0.1665735,0.1657092,0.7368330043023996
0.7503859,-0.09657594,0.1525259,0.7717966450280175
0.803526,-0.09653279,0.1337143,0.8202756404073414
0.8331483,-0.127086,0.1414435,0.8545719424841538
0.8863681,-0.1577045,0.137111,0.9106692837352427
1.007079,-0.2082855,0.1412896,1.038052846833633
1.189017,-0.1821492,0.1542303,1.2127352319396554
1.410937,-0.09264487,0.1530251,1.4222316868697333
1.496887,-0.02727176,0.2012807,1.5106052958516292
1.435801,0.001743834,0.2618951,1.4594918965044066
1.437822,-0.1949647,0.2292775,1.4689831550893768
1.473738,-0.57974,0.0650152,1.5850013048811789
1.326714,-0.6897217,-0.07815502,1.4973290447988012
0.9053916,-0.4836488,0.00763941,1.0265030305250678
0.4938898,-0.2960106,0.1049825,0.5852954255439299
0.6050549,-0.1811258,-0.02710538,0.6321650805482649
1.051054,-0.1013076,-0.1771783,1.0706866445065288
1.232857,-0.1662532,-0.2273887,1.2646272691378002
1.201113,-0.359903,-0.1858661,1.267575960369717
1.029755,-0.49718,-0.06127327,1.145136553447445
0.7738174,-0.5285261,-0.02154428,0.9373352457497202
0.6849909,-0.4530721,-0.001642155,0.8212731321273478
0.6651135,-0.3196728,0.01941749,0.7382030248244653
0.7830985,-0.2442725,-0.07930842,0.8241372097177729
0.9804671,-0.1667078,-0.1397041,1.0043029723744026
1.266584,-0.07298541,0.2140031,1.2866076425773625
1.278847,-0.0736041,0.2609029,1.3072633767432713
1.337368,-0.2975492,0.1293908,1.3761652055510194
1.349843,-0.6797692,-0.1074896,1.5151621378670337
1.268118,-0.8087442,-0.2043328,1.5178742820515407
1.015575,-0.5379847,-0.1214604,1.155669826043429
0.7573091,-0.2563804,-0.0394034,0.8005002250958646
0.7824455,-0.1723792,-0.05966187,0.8034270892836429
0.9521903,-0.1727136,-0.09650987,0.9725278967960082
1.007754,-0.2416794,-0.1286143,1.04427903122913
1.026195,-0.3514774,-0.1306295,1.092555081909379
0.991496,-0.4847382,-0.0811138,1.1066231920150962
0.8963329,-0.5154249,-0.07202306,1.0364665051675253
0.8074926,-0.3598268,-0.03868441,0.8848819744067838
0.6583188,-0.2375657,0.02104799,0.7001886332503335
0.6682955,-0.1957553,-0.01294396,0.6964959144882485
0.8564691,-0.1515676,-0.07460059,0.8729703916244342
0.9727067,-0.07351328,-0.1408835,0.9856016878706624
1.068232,-0.001663815,-0.1768146,1.082767646763383
1.011505,-0.04392031,-0.1060733,1.0179994615069234
0.8879389,-0.04580079,-0.04159968,0.8900919816928677
0.9451841,-0.00881748,-0.04188255,0.9461526720571384
0.9580444,-0.05269462,-0.05476203,0.9610539398379393
0.973824,-0.06163142,-0.0690886,0.9782151345983032
1.021588,-0.1272113,-0.08518156,1.0329959606676704
0.9675918,-0.2244285,-0.09858539,0.9981588661936245
0.9919049,-0.2120364,-0.08733431,1.0180678009210125
1.054196,-0.1986159,-0.04678357,1.0737626295279394
1.167839,-0.1880345,-0.008658043,1.1829116048208506
1.349729,-0.1675087,-0.0199181,1.3602294911978272
1.364404,-0.1025816,-0.09120158,1.3712909932137147
1.289677,0.00978799,-0.1603602,1.2996453219325956
1.165324,-0.03553403,-0.1747185,1.1788847469139174
0.953431,-0.2548808,-0.1610146,0.9999602969032321
0.8625931,-0.4830261,-0.1948577,1.0076460651925905
0.9705055,-0.5852316,-0.2744539,1.1660625602402386
1.153108,-0.5954771,-0.3214357,1.3370011015413936
1.319574,-0.6297493,-0.3168053,1.4960699584025408
1.426337,-0.5817725,-0.2699818,1.5639011003437813
1.361794,-0.4331885,-0.1883181,1.4413878318328692
1.168421,-0.230391,-0.08668229,1.1940692884090287
0.9912659,-0.03341584,-0.007691359,0.9918587902866932
0.8680718,-0.06843469,-0.01321905,0.8708654890587515
0.8278863,-0.1516037,-0.02879035,0.8421450539155962
0.7746005,-0.1177402,-0.02034042,0.7837617125007234
0.7286536,-0.1729265,-0.05024044,0.750575609120496
0.7189906,-0.2045808,-0.00592307,0.7475532552101054
0.6550404,-0.2031562,0.1000581,0.6930815180093969
0.6491117,-0.2383388,0.135572,0.7046496646180497
0.6515908,-0.176058,0.1710696,0.6962986414267947
0.6713886,-0.1377039,0.1835273,0.709512005628136
0.7866625,-0.1329533,0.1417337,0.8103103791775286
0.8616515,-0.1112325,0.1281636,0.8782037832265699
0.9974116,-0.1351162,0.1124894,1.012788305831658
1.188254,-0.1198687,0.1161771,1.1999221609421586
1.348145,-0.1018525,0.1462546,1.3598747298197764
1.44589,-0.07349434,0.1779032,1.4586462417880066
1.373154,-0.03846629,0.2747094,1.4008914367754284
1.352998,-0.1716738,0.3185575,1.4005550194179055
1.426871,-0.4213896,0.1840733,1.4991374271233608
1.390043,-0.6109857,-0.006678503,1.518409585670418
1.182668,-0.5996835,-0.08566208,1.3287821079267197
0.8042369,-0.4065772,-0.03073074,0.9016908501600743
0.6220394,-0.2310169,-0.001833322,0.6635549595229665
0.7885076,-0.18287,-0.04678115,0.8107861297241601
0.9721862,-0.2389292,-0.09278372,1.0054063799181494
1.074926,-0.2724387,-0.1461206,1.1184989854613416
0.9980553,-0.3206199,-0.1165544,1.0547494632819019
0.7794243,-0.439414,-0.03315099,0.8953691367053425
0.7587948,-0.4486384,-0.05500349,0.8832164776394177
0.773166,-0.379728,-0.07279265,0.8644523048925385
0.6961624,-0.3132292,-0.06719287,0.7663351099129132
0.7876721,-0.2116796,-0.1272482,0.8254863382139102
0.8934067,-0.1395991,-0.1478443,0.9162539917338368
0.9455929,-0.06930815,-0.1428881,0.958836045061116
0.9934061,-0.007002722,-0.1278838,1.0016281665044464
0.9347106,0.001538837,-0.07011755,0.9373381164711456
0.9456873,-0.004081568,-0.06213303,0.9477350062098633
0.9846671,-0.03179129,-0.07494839,0.9880269455363382
0.9743561,-0.07659643,-0.08188714,0.9807865855492388
1.008013,-0.1578517,-0.1124507,1.0264757801781688
1.014918,-0.2384969,-0.1174989,1.0491641003841201
1.097711,-0.2498105,-0.09253882,1.1295743263009488
1.210892,-0.2320145,-0.04414142,1.233709296728312
1.226754,-0.161942,-0.01486645,1.2374859996038752
1.241697,-0.04818797,-0.06731537,1.24445364690693
1.22914,-0.01353992,-0.1745768,1.2415496478723056
1.151233,-0.1579273,-0.2490882,1.188412127064315
1.003731,-0.4418322,-0.2278541,1.1200933462014002
0.9340361,-0.6770727,-0.19818,1.1705238953513508
1.065718,-0.7399197,-0.225344,1.3168203887805239
1.264038,-0.6602476,-0.2490175,1.4476631770049309
1.504351,-0.5876152,-0.2727956,1.6379197153253269
1.591402,-0.5218305,-0.2578675,1.6945096765408274
1.325685,-0.2969335,-0.1339383,1.3651189291977972
1.031859,-0.03992553,0.0119202,1.0326999249514939
0.9368965,-0.002557462,0.05833398,0.9387142512749936
0.837293,-0.0930539,-0.00599788,0.8424693292451093
0.6473066,-0.07972934,-0.053291,0.6543718612084383
0.6221252,-0.07321827,-0.03180887,0.6272260228558043
0.7101281,-0.1768102,-0.01787869,0.7320269208094509
0.6431748,-0.2381529,0.05268934,0.6878712042839746
0.634139,-0.291321,0.1410213,0.711960113640989
0.6895447,-0.2702616,0.1373455,0.7532443243084544
0.6334526,-0.1616282,0.1711219,0.6757725772340943
0.677556,-0.1497445,0.2179956,0.7273428559047034
0.7830413,-0.1211089,0.1685105,0.8100721151694769
0.881151,-0.104365,0.139354,0.8981863255149234
1.009432,-0.1467437,0.1541755,1.0316282086652828
1.111916,-0.1685611,0.1427577,1.1336444753089479
1.29754,-0.2064574,0.1415708,1.321467744981844
1.377849,-0.1499077,0.1714399,1.396542811600239
1.302502,-0.1039334,0.2434386,1.329126014947236
1.336233,-0.1496966,0.3680056,1.39404297780661
1.36602,-0.2204926,0.3610339,1.4300255606121066
1.38634,-0.4754432,0.07244072,1.4673896857823276
1.358186,-0.6930829,-0.205482,1.5385889539420232
1.089165,-0.5592716,-0.1413979,1.2325009070649684
0.7939928,-0.3151416,0.02566605,0.8546329859214438
0.7607772,-0.2034307,0.003281677,0.7875130266517897
0.9552728,-0.1608591,-0.05780708,0.970444965451816
1.046963,-0.2320933,-0.1061591,1.0776217229560194
0.9499143,-0.3993419,-0.119811,1.0373841169793858
0.8800756,-0.4571751,-0.04970011,0.9929814875965121
0.8372257,-0.4684576,-0.07015517,0.9619361432111692
0.7763458,-0.3928933,-0.07851834,0.8736378403428308
0.7279638,-0.223431,-0.04404807,0.7627535239788571
0.7630382,-0.1776849,-0.09274883,0.788924308038242
0.8750768,-0.1306799,-0.1047139,0.8909554663480437
0.9458152,-0.06673756,-0.1438298,0.9590137151437582
0.9556144,-0.04229927,-0.1397637,0.9667067815876657
0.9010797,0.01006515,-0.04733522,0.902378277691269
0.8822318,0.006675884,-0.05589834,0.8840260973371641
0.9663663,-0.01989949,-0.07550577,0.9695158259570821
1.032332,-0.07747009,-0.1241531,1.0426528498537844
1.033691,-0.1581247,-0.1657034,1.058762542311849
0.9816906,-0.1921757,-0.09906885,1.0052176733619302
0.9730752,-0.2273667,-0.05632547,1.0008713801956028
1.087743,-0.2315639,-0.0153448,1.1122239597847414
1.256415,-0.2099546,-0.01491262,1.2739238487921578
1.347867,-0.1615156,-0.06977007,1.3593015123217382
1.288865,-0.09215024,-0.1130481,1.2970907939965757
1.233847,-0.1157465,-0.1872934,1.2533373406049984
1.165327,-0.2583305,-0.197885,1.2099091442683827
0.9823903,-0.4839252,-0.1807767,1.109934464728445
0.9292415,-0.6556179,-0.2308969,1.1604473165776505
1.072222,-0.6522805,-0.2890857,1.2879054351576982
1.275771,-0.591845,-0.3234537,1.4430850441015908
1.431772,-0.5315523,-0.2648633,1.55005531362793
1.379378,-0.3450938,-0.1578105,1.430621386528487
1.160662,-0.1212704,-0.08046158,1.169750765768613
0.918354,-0.06548913,-0.021317,0.9209328476893182
0.7726716,-0.1117694,-0.03635308,0.7815595605252401
0.7520545,-0.1465755,-0.07424508,0.7697939205233478
0.7047432,-0.177954,-0.05804645,0.7291776151390295
0.6752424,-0.2167848,-0.01409495,0.709328284988201
0.7019043,-0.2404913,0.05701681,0.744148256973539
0.6509814,-0.2345888,0.1175207,0.7018687934079204
0.6294431,-0.2276143,0.1604744,0.6883014737434898
0.6782582,-0.1807708,0.1742554,0.723240770718189
0.7221923,-0.09478526,0.13527,0.7408400209171732
0.7933078,-0.06700021,0.1405127,0.8084368327471072
0.8115097,-0.09221842,0.1511413,0.8305997367848585
0.844371,-0.1235006,0.1469897,0.8659219108831061
1.035928,-0.1606269,0.1989947,1.0670270440882461
1.307597,-0.1662925,0.1805146,1.3304317460051869
1.507503,-0.1069508,0.1593353,1.519668222493229
1.497436,-0.06670309,0.2357412,1.517345639493187
1.433352,-0.1229894,0.2972528,1.4690076839568267
1.470811,-0.3055242,0.3033157,1.5325242080871448
1.428639,-0.5879366,0.09275819,1.5476701585779304
1.207138,-0.6830729,-0.1672791,1.397051550607643
0.8043262,-0.4615616,-0.107467,0.9335571234209507
0.5611522,-0.2433598,-0.03609895,0.6127143853476776
0.8704659,-0.1882945,-0.1301943,0.900064585207945
1.200349,-0.1976054,-0.1398185,1.2245141194989997
1.13028,-0.23844,-0.1428465,1.1639551686221639
1.021286,-0.2824853,-0.1291281,1.0674722969340702
0.8932733,-0.3254827,-0.01581795,0.9508556063011789
0.7171599,-0.3605421,-0.01564615,0.8028410366007971
0.6881649,-0.3126444,-0.06581249,0.7587151865379855
0.6854823,-0.2377066,-0.05662116,0.7277337198842688
0.7283623,-0.2205322,-0.1057547,0.7683294526895478
0.8903895,-0.1804576,-0.1429146,0.919664607343987
0.9884487,-0.09836974,-0.1641021,1.0067953801561504
0.964931,-0.04794561,-0.1584026,0.9790209394931408
0.8760143,-0.007901335,-0.0732223,0.8791046525394813
0.8363401,0.01385738,-0.05125614,0.8380238551116395
0.8979033,-0.04863954,-0.07406649,0.9022649200446737
0.9865756,-0.1490039,-0.1125217,1.0040889949110388
1.06784,-0.2391583,-0.1752939,1.1082449681528448
1.111808,-0.2855564,-0.1684356,1.1601853463099419
1.156162,-0.2337802,-0.1130641,1.1849671906280148
1.223084,-0.1598461,-0.0324845,1.2339126749820912
1.261563,-0.09819401,-0.01050657,1.2654223226188344
1.2549,-0.05265544,-0.1077497,1.260617548351475
1.203835,-0.1231538,-0.2156524,1.229183274904601
1.116497,-0.2891162,-0.2560426,1.1814023620791523
0.983597,-0.5056554,-0.2102891,1.1257761533879505
0.960643,-0.6666984,-0.2025724,1.1867423086977729
1.196981,-0.6427984,-0.3055462,1.3925917484094181
1.49925,-0.6091755,-0.3728536,1.660682136753813
1.572386,-0.5744996,-0.3182659,1.7040365918896725
1.305242,-0.3576208,-0.182503,1.3655975469242905
0.9819856,-0.1363985,-0.03930973,0.992192281910257
0.8820783,-0.07233064,0.04199266,0.8860345548044812
0.8189855,-0.1078716,-0.009437918,0.8261129496582079
0.6936829,-0.142393,-0.08886891,0.7137012087463479
0.6832383,-0.1380588,-0.05510081,0.6992216430481726
0.7130701,-0.2219509,-0.01432211,0.7469513319886859
0.6269237,-0.3112754,0.03482557,0.7008127571560573
0.621682,-0.2704931,0.1064333,0.6862820656410161
0.6811864,-0.2310213,0.1321079,0.7313263634254272
0.6335633,-0.1690452,0.1589819,0.6747251138630753
0.7065046,-0.05039827,0.1343686,0.7209324906717084
0.8332821,-0.04490737,0.1150085,0.8423791813268993
0.8757982,-0.1483215,0.1374872,0.8988461963257841
0.9695467,-0.2235497,0.1155146,1.0016680561264495
1.042456,-0.2390703,0.1361088,1.0781441117566473
1.204883,-0.2068279,0.1432008,1.230864449493952
1.443807,-0.158263,0.1317926,1.4584221336200163
1.495755,-0.1418754,0.1756906,1.5127057995785302
1.426888,-0.1978938,0.1782262,1.4515288143846403
1.384535,-0.4276526,0.1251941,1.4544749826609498
1.355927,-0.6513139,-0.02632116,1.5044735388586785
1.078533,-0.4875643,-0.1373215,1.1915576247440742
0.668823,-0.2058936,-0.02973193,0.7004287026610808
0.6826941,-0.1497067,0.04628079,0.7004464588551533
0.9798097,-0.08956006,-0.04058031,0.9847308333351759
1.104297,-0.116736,-0.1100439,1.1158892498058264
1.032588,-0.3375157,-0.09797121,1.0907580774302588
0.9194406,-0.4637177,-0.07573945,1.0325413243584747
0.8375763,-0.511775,-0.04591287,0.9826269386589842
0.7268688,-0.4371011,-0.02998459,0.8487017731053224
0.6309889,-0.2382313,-0.04723034,0.6761152632794319
0.6533817,-0.1611212,-0.03902885,0.6740852602725063
0.800696,-0.09072193,-0.0868668,0.810487750642269
1.016794,-0.05219954,-0.1792089,1.0337846295294884
1.073401,-0.0855119,-0.1843569,1.0924694313436052
0.9124524,-0.05352393,-0.1098137,0.92059396155748
0.8303734,-0.1042111,-0.02562725,0.8372793397267919
0.8915939,-0.1690268,-0.04226595,0.9084581180026147
0.9326138,-0.1869848,-0.08548397,0.9550074997131913
0.993388,-0.2267317,-0.1027851,1.0241053457095612
1.103957,-0.2223486,-0.1768305,1.139924990295945
1.113406,-0.2218483,-0.1549686,1.145820603774801
1.073209,-0.1356867,-0.05797652,1.0833049963464585
1.170389,-0.0106377,-0.03985347,1.1711156522962753
1.293724,0.00372825,-0.06252652,1.2952394580645592
1.339095,-0.01083331,-0.1601625,1.348682618719766
1.297989,-0.1229948,-0.2355429,1.3249089110910417
1.107339,-0.3550701,-0.18241,1.177092963590816
0.9457561,-0.5945354,-0.1565992,1.12802936663059
0.9572801,-0.7318584,-0.2087976,1.2229465831639295
1.095027,-0.7102074,-0.2642157,1.3316488342916273
1.318216,-0.6352589,-0.2795891,1.4897709077317962
1.474811,-0.5457145,-0.2251568,1.5885740101794095
1.405167,-0.4075284,-0.1259837,1.4684841120561196
1.167945,-0.1840377,-0.05096587,1.183453808963893
0.9772501,-0.0178991,-0.0415252,0.9782957006784094
0.8358183,-0.08142548,-0.08826516,0.8444010172174985
0.7022045,-0.1462216,-0.1343915,0.7297485809503572
0.6496027,-0.1591205,-0.08660943,0.674391722022494
0.5951843,-0.268852,0.01834143,0.6533468886624738
0.5650768,-0.3125041,0.1059049,0.6543595726044359
0.5840705,-0.2735537,0.1806586,0.6697816849600324
0.5841889,-0.2221173,0.1744582,0.648882446510722
0.6429371,-0.0888097,0.1481263,0.6657301841753835
0.7770325,-0.03069801,0.1669265,0.7953529595572396
0.9130399,-0.09610612,0.1383292,0.9284466666783313
0.9801907,-0.1054978,0.129674,0.994343472069551
1.111846,-0.1011178,0.1631266,1.1282892469665744
1.372928,-0.1410788,0.1751827,1.3912309295630003
1.488635,-0.1597511,0.2109062,1.5119642860777662
1.441683,-0.1735465,0.2777273,1.478411550724811
1.411078,-0.3002218,0.2963542,1.4727864961143824
1.397514,-0.5922425,0.08924689,1.520447817709283
1.311042,-0.7562556,-0.2110616,1.5281690538974804
1.064885,-0.5340837,-0.2074892,1.2092465546559685
0.7931324,-0.249331,-0.01740496,0.831581555906191
0.7677175,-0.1940481,0.04818496,0.7933262981208059
0.9312388,-0.1812964,0.008537209,0.9487607555205421
0.9817497,-0.1734239,-0.03473308,0.99755436412638
0.9413463,-0.2823761,-0.04461411,0.9837985246919168
0.9469674,-0.4030584,-0.07470387,1.0318837137324617
0.9236761,-0.4514438,-0.09035646,1.0320578143366685
0.8221516,-0.3939468,-0.05239233,0.913166080653256
0.6706364,-0.293371,-0.07017763,0.7353534010245529
0.6332657,-0.2459516,-0.0784644,0.6838671642990399
0.750946,-0.1722105,-0.06647396,0.7733014538873774
0.8755767,-0.06211982,-0.1322652,0.887686607283653
0.9813186,0.00766843,-0.1616213,0.9945684713172417
0.9595615,-0.02099477,-0.1295462,0.9684943317253039
0.8773418,-0.0641028,-0.06350857,0.8819700343313965
0.9071835,-0.03741023,0.00426232,0.9079645341932059
0.9066574,-0.1013665,-0.02936987,0.9127789423298649
0.9280247,-0.2141901,-0.08205749,0.9559501422214446
1.016639,-0.2776061,-0.1059834,1.059175379318161
1.045444,-0.298237,-0.1210451,1.093869453609072
1.124715,-0.2159809,-0.07753906,1.1478867044336272
1.213218,-0.1364992,-0.006230828,1.2208885167541734
1.231494,-0.05625234,0.02971348,1.2331361192849661
1.277799,-0.03141138,-0.05117137,1.279208922851221
1.288699,-0.1792996,-0.2198937,1.3195630710431578
1.185379,-0.3481967,-0.2971118,1.2706847513176232
1.018209,-0.5598297,-0.2585502,1.1903810594104436
0.968453,-0.7209339,-0.2519343,1.2333360421615434
1.147958,-0.6963953,-0.326227,1.381737326395683
1.382382,-0.6670201,-0.3515372,1.5746346276872771
1.455621,-0.5828209,-0.2475352,1.5873834988297095
1.30127,-0.3536139,-0.09619519,1.3518875388701332
1.097726,-0.1344819,-0.003023095,1.1059371101500253
0.9661528,-0.04301065,0.005578138,0.9671257749562927
0.7922865,-0.01538839,-0.03179232,0.7930734217208546
0.6963793,-0.01990578,-0.07572822,0.7007675312471796
0.7374823,-0.1275049,-0.06798779,0.7515051443113241
0.6786015,-0.2341524,-0.003204264,0.7178701898921501
0.5983463,-0.2954572,0.06748181,0.6707212881938415
0.630065,-0.3093318,0.1477639,0.7172881128664059
0.6387629,-0.2568671,0.1945284,0.7154299741312073
0.669881,-0.2273353,0.1876184,0.7318623892547355
0.7747305,-0.1327566,0.1781766,0.8059643684812438
0.8303419,-0.04801973,0.1637399,0.8476935296537852
0.8832011,-0.08999852,0.1548901,0.9011852527207768
1.047653,-0.1171446,0.1517267,1.065044908541912
1.30451,-0.1431669,0.142478,1.320054196553918
1.463347,-0.0961135,0.1488654,1.4740363477907896
1.364154,-0.008929672,0.1992577,1.378658589269772
1.268409,-0.1185648,0.2599231,1.3001842257901954
1.357936,-0.4098251,0.1946027,1.4317181997632427
1.421915,-0.8294259,-0.001164471,1.6461442667058437
1.407569,-1.014547,-0.1846603,1.744894131850437
1.167776,-0.6685195,-0.1950908,1.359661549173503
0.7444455,-0.2948203,-0.004825092,0.8007130530190877
0.7511101,-0.1936339,0.09272934,0.7811908857942824
1.054614,-0.1883557,-0.0293944,1.0717054583559096
1.11135,-0.2302742,-0.1212589,1.1414152401798612
1.014112,-0.2899545,-0.07851169,1.0576676444332151
0.8566832,-0.3995793,-0.0404679,0.9461539901523113
0.7655969,-0.4506232,-0.05868704,0.8903055937889033
0.735542,-0.3188699,-0.05070689,0.803287766359903
0.6517973,-0.2158208,-0.06075481,0.6892818617503772
0.7317349,-0.1573883,-0.09656952,0.7546739117313718
0.8596023,-0.09049635,-0.1009856,0.8702320351124592
0.9427217,-0.08343808,-0.1340991,0.9558601809186249
1.025819,-0.05914393,-0.1321547,1.035986240231469
0.9581499,-0.06140186,-0.0983196,0.9651363442672903
0.9319501,-0.07709929,-0.09976609,0.9404406212634598
0.9472132,-0.06339854,-0.08345392,0.9529935875396738
0.9319184,-0.1200848,-0.1074439,0.9457465067854124
1.028091,-0.1877013,-0.1356032,1.0538458664116543
1.080074,-0.2199807,-0.1107268,1.1077959099431312
1.140331,-0.1981338,-0.06172987,1.1590609859337242
1.239943,-0.1204736,0.02987739,1.2461401165114507
1.231053,-0.04847742,0.03948387,1.2326396574218408
1.229731,0.02332805,-0.07308537,1.2321217478747135
1.200635,0.006390998,-0.2155398,1.219845339977358
1.097057,-0.1324157,-0.3045429,1.1462174125338962
0.9821025,-0.4171101,-0.2399916,1.0936645391064026
0.8877547,-0.7628361,-0.1626786,1.181732478073299
0.9637392,-0.7849906,-0.190014,1.2574214917445143
1.208531,-0.6379878,-0.2435821,1.3881310638229556
1.496449,-0.602954,-0.3329495,1.6473519676338901
1.633125,-0.4086653,-0.357533,1.7210271465430433
1.410575,-0.1853132,-0.2226893,1.440018519691233
1.055485,-0.1227405,-0.05074274,1.0638085547822773
0.8192671,-0.05555491,0.06623662,0.8238156462440748
0.670685,-0.08937224,0.05362468,0.6787351271392398
0.6664066,-0.1648579,-0.02101311,0.686816885718342
0.6978337,-0.17824,-0.01580531,0.7204104234947508
0.6603414,-0.2271246,0.003920956,0.6983206443855673
0.6706936,-0.2032666,0.05583971,0.7030400336889814
0.6519893,-0.168474,0.1448277,0.6888022928807511
0.629405,-0.1445153,0.1791657,0.6701758530531967
0.6993365,-0.05399091,0.1971535,0.7285986969224747
0.7887301,-0.07680115,0.1660879,0.8096781939843399
0.8990946,-0.1419621,0.1153553,0.9175135872692349
0.9939228,-0.1812966,0.1248509,1.0180072380696563
1.123579,-0.2462824,0.1402527,1.158773321080551
1.286538,-0.1991201,0.1597083,1.311615637584769
1.38275,-0.1058788,0.1790454,1.3983079553698463
1.51125,-0.05408487,0.2549414,1.5335569285477721
1.529189,-0.06828154,0.3653906,1.5737190527518345
1.415639,-0.2351668,0.2873355,1.4635227677434643
1.396593,-0.4928397,0.04904006,1.481812371736008
1.232938,-0.6661415,-0.11964,1.4064829680683126
0.9153976,-0.5120736,-0.09110672,1.0528402406499662
0.7609417,-0.2444621,-0.01186861,0.7993340059315831
0.8560712,-0.2353839,-0.08736803,0.8921304010707913
1.124347,-0.2437479,-0.1514907,1.1603959011259477
1.163099,-0.2440016,-0.1555059,1.1985483509389057
0.9598878,-0.3582162,-0.1432413,1.0345151060071427
0.8164868,-0.4144126,-0.01550149,0.9157667791557085
0.690429,-0.4478695,0.003042729,0.8229754256786878
0.6714643,-0.3796067,-0.05519335,0.7733122647052758
0.680778,-0.229789,-0.02526415,0.7189575419176173
0.7596066,-0.1717708,-0.1061104,0.7859814320226401
1.020845,-0.09777779,-0.1765517,1.0406034369610615
1.059747,-0.04943292,-0.1613856,1.07310420252466
0.9473383,-0.02212082,-0.126339,0.9559815522515915
0.8853764,0.01406776,-0.03774867,0.8862924086525543
0.8471211,-0.03135306,-0.04113167,0.8486984073942654
0.9411715,-0.07071195,-0.04953011,0.9451228513170469
1.007887,-0.1574624,-0.07386297,1.0227836283984901
1.021132,-0.2616182,-0.1905535,1.0711980584175318
1.040312,-0.2433159,-0.1636741,1.0808519304454334
1.075746,-0.2035909,-0.0826089,1.0979539796539837
1.159859,-0.1397503,-0.02778383,1.1685781905548978
1.184819,-0.02727152,0.03583445,1.1856744521034908
1.262134,0.03304537,-0.07862492,1.2650122957819199
1.343702,0.008408523,-0.2433023,1.3655774519405084
1.249297,-0.1210212,-0.2685695,1.2835570503053966
1.104177,-0.3956066,-0.2636413,1.2021722690023464
1.006357,-0.6809481,-0.2556392,1.2416908338709962
1.006443,-0.7642388,-0.2015789,1.2796962563826035
1.086358,-0.7124224,-0.1582031,1.3087198329036547
1.259833,-0.6123903,-0.1809506,1.4124249314789972
1.483068,-0.4394219,-0.2018957,1.5599180018520524
1.445271,-0.3237271,-0.1786746,1.49182174250162
1.209331,-0.2486089,-0.1550093,1.244313359169104
1.01491,-0.07020431,-0.05193861,1.0186601849740216
0.8279965,0.01406495,0.06851594,0.8309455222003643
0.7934204,-0.1152156,-0.0003824176,0.8017422976634954
0.7979786,-0.1984823,-0.08155842,0.826327323367772
0.6760245,-0.2232732,-0.02056141,0.712237894259831
0.7098455,-0.2569859,0.02355183,0.7552993283231549
0.6889641,-0.2219084,0.09592033,0.7301476417730038
0.5844093,-0.2323611,0.1862609,0.6559108427130245
0.7027628,-0.2029391,0.1463721,0.745978969563526
0.7320596,-0.09824918,0.1340896,0.7506957973446984
0.7508412,-0.1014933,0.1743939,0.7774809514834045
0.8503429,-0.1140008,0.1402662,0.8693410359827092
0.8491951,-0.1619637,0.1407558,0.8758862672832244
0.9874865,-0.2545937,0.1592114,1.0321316823215438
1.192232,-0.2395273,0.1572402,1.2261790039652978
1.403667,-0.1514431,0.1960094,1.4253546030076059
1.54093,0.001530478,0.2232854,1.5570240772435306
1.437027,0.05663829,0.2849185,1.4660944874957325
1.421517,-0.1911233,0.3003034,1.4654080759786503
1.430592,-0.5909032,0.06148243,1.5490449158862194
1.284192,-0.7811182,-0.1748555,1.5132313706487486
1.086433,-0.6086031,-0.09968202,1.2492681465281543
0.8213608,-0.3706327,0.002729279,0.9011157589620713
0.7512107,-0.2417281,-0.06662926,0.7919529332051543
0.9418274,-0.2036073,-0.07030841,0.9661459809577319
1.050455,-0.2740779,-0.06803981,1.0877517262860334
0.9689209,-0.3116301,-0.1043985,1.0231422562308088
0.8628272,-0.3853429,-0.04198409,0.9458977700858471
0.8282817,-0.489243,-0.05319251,0.9634514677574528
0.7574608,-0.3931139,-0.07423724,0.856619267652011
0.7221059,-0.2859368,-0.04572736,0.7780024266425006
0.8098888,-0.2333217,-0.1135225,0.8504388526299701
0.9088241,-0.1210789,-0.1467992,0.928531824918597
0.991615,-0.06899382,-0.1680595,1.0081192642556944
0.9728433,-0.01560412,-0.152748,0.9848855397556938
0.8932896,0.01080617,-0.06147177,0.8954673982257321
0.8893765,-0.0411779,-0.05954204,0.8923180109848852
0.9127721,-0.05303285,-0.06245426,0.9164419917865397
0.9926605,-0.1195173,-0.1052139,1.005350296171812
1.064956,-0.1930656,-0.1895165,1.0987821037911065
1.061959,-0.1925701,-0.157252,1.0906733482574011
1.089269,-0.2087399,-0.1062295,1.1141651614025903
1.103215,-0.1731838,-0.03455077,1.1172599162750954
1.102922,-0.0989786,0.03655022,1.107957408894407
1.167862,-0.07753132,-0.01249802,1.1704994477268509
1.256483,-0.1085538,-0.1191584,1.26678024182334
1.261473,-0.1995128,-0.2177178,1.2955772950811077
1.110552,-0.3403744,-0.2438668,1.1868662490026414
0.919335,-0.4918054,-0.2230343,1.066205276984995
0.8834834,-0.6152355,-0.2751899,1.1112097549957975
1.109069,-0.6864041,-0.3550034,1.3517440768390185
1.430317,-0.6724043,-0.36617,1.6223485236062842
1.525427,-0.6167286,-0.2811414,1.6692280207272223
1.386651,-0.4777628,-0.143017,1.473605154427006
1.129571,-0.131311,-0.05939079,1.1387275743999636
0.8485653,0.1485273,-0.01841477,0.8616626549662767
0.7920314,0.08618438,-0.02854172,0.7972177341996995
0.8837434,-0.08480549,-0.1259615,0.8966943000041597
0.8154022,-0.1683085,-0.14117,0.8444746697427282
0.7194523,-0.2574626,-0.04117143,0.7652409352761357
0.6632173,-0.3260278,0.1089117,0.7470027254227524
0.5504536,-0.2987808,0.2510981,0.6747735827855222
0.5945633,-0.2466661,0.2202732,0.6803454749128123
0.7118758,-0.171451,0.1612938,0.7497854959553965
0.7755111,-0.1155022,0.1730163,0.8029276832279106
0.8770703,-0.1083614,0.1333375,0.8937412338357786
0.8591063,-0.08663697,0.1440134,0.875391031853783
0.8643089,-0.1201167,0.1682268,0.8886833814561517
1.027524,-0.1394625,0.1492274,1.0476278806871313
1.202217,-0.07198404,0.1672899,1.2159331098977986
1.372056,-0.03062798,0.1613871,1.3818543831899548
1.436443,-0.01133043,0.159429,1.4453077447152853
1.52055,-0.01941921,0.1846686,1.5318459126305701
1.595618,-0.1526742,0.1753903,1.6124726263114453
1.49339,-0.4514133,0.1295946,1.5654974991567538
1.398151,-0.6649459,0.06737927,1.5496835918191632
1.04711,-0.5728849,0.06761806,1.1954951538112455
0.5516942,-0.3760003,0.07806346,0.6721879348075965
0.5738821,-0.1839947,0.009263818,0.602727577477949
0.9453756,-0.09969479,-0.09305669,0.9551615694646954
1.277648,-0.2206468,-0.1993277,1.3117930302610734
1.303958,-0.3215277,-0.1782775,1.3547949640582297
0.9889756,-0.4101765,-0.04104936,1.071448808158383
0.7226054,-0.4790972,0.0431558,0.868075523344968
0.5713051,-0.3547022,0.09225905,0.6787598251795347
0.5732392,-0.2311362,0.01903343,0.618376418393073
0.7756886,-0.1786618,-0.1288031,0.806351710805409
0.9823497,-0.1351364,-0.1751227,1.0069462447173334
1.080954,-0.1339834,-0.2139416,1.1100378866516762
0.9621315,-0.05493091,-0.1478907,0.9749800445712559
0.8347,0.01758369,-2.455323e-05,0.8348851877694784
0.8671833,-0.001407481,-0.0002271174,0.8671844719458305
0.9074133,-0.02035755,-0.03273498,0.9082317467334495
0.9900091,-0.08903203,-0.06452146,0.996096249992571
0.9910417,-0.1576206,-0.1123602,1.0097686463875228
0.9363878,-0.2097412,-0.1203335,0.9671058029959959
1.008636,-0.2678644,-0.1395656,1.0528895829984832
1.087231,-0.2335689,-0.1155791,1.1180269257781854
1.218023,-0.1721631,-0.06362002,1.231774195408968
1.280993,-0.1176797,-0.04728441,1.287255760628065
1.210965,-0.06098274,-0.06062426,1.214014178954865
1.247415,-0.0971122,-0.1218585,1.2571095638949255
1.203965,-0.2084655,-0.1793726,1.2349753501774883
1.050883,-0.3871071,-0.2160683,1.140566743695563
1.024963,-0.6132391,-0.2740117,1.2254361496523187
1.14637,-0.7291983,-0.339767,1.4004770444073296
1.347945,-0.7274322,-0.3164418,1.5640488296114925
1.370934,-0.6516125,-0.1968111,1.5306186630233738
1.225374,-0.4222587,-0.1038271,1.3002399456623766
1.083234,-0.1417626,-0.04034683,1.0932156238390527
0.9046371,0.01703591,-0.03069864,0.9053181271927496
0.8333536,0.02812941,-0.08192613,0.8378432891159808
0.8219829,-0.06225663,-0.09815026,0.830159773422824
0.7206582,-0.1451182,-0.07880734,0.7393362766944116
0.6626628,-0.210979,0.005740783,0.6954617757535586
0.6500919,-0.2703518,0.1175427,0.7138108016359376
0.6543565,-0.2833236,0.1626802,0.7313819377597796
0.679051,-0.275965,0.1646989,0.7512607200481135
0.7159028,-0.2231426,0.1598269,0.7667164253791684
0.7938053,-0.1558101,0.1779216,0.8282872311684275
0.8279793,-0.1340266,0.1662088,0.8550662055849769
0.8559393,-0.1205378,0.1273135,0.8737105778205847
0.9280896,-0.1200851,0.1171612,0.9431317424705893
1.029564,-0.1298671,0.1180612,1.0444165551655382
1.303722,-0.1250479,0.1459111,1.3178080587405816
1.566137,-0.109289,0.1600001,1.5780776977988153
1.543499,-0.1247231,0.2179425,1.5637915295783065
1.521579,-0.278078,0.2828899,1.57243655606419
1.561955,-0.5556918,0.1196049,1.6621679008801276
1.293258,-0.6684226,-0.04186379,1.4563851151628555
0.8054824,-0.4662161,0.05364352,0.9322215272385425
0.4993323,-0.2515118,0.1157095,0.5709462494427825
0.6015976,-0.1580879,-0.006454831,0.6220555612607354
1.011564,-0.07557952,-0.1738497,1.029173312969939
1.284643,-0.150179,-0.309446,1.3298940545795368
1.181829,-0.3603922,-0.2334376,1.2574161746039376
0.8713434,-0.4836279,-0.0001256891,0.99656173024039
0.6498708,-0.5076162,0.05002503,0.8261408879976713
0.606586,-0.4315437,0.04220272,0.7456256500289461
0.6182794,-0.3378214,0.0505235,0.7063606294341227
0.7525507,-0.274791,-0.07834734,0.8049726426634422
0.9846303,-0.1438716,-0.1839593,1.0119470781721442
1.067409,-0.09870411,-0.220355,1.0943769006319952
0.9737997,-0.1049959,-0.1442694,0.9900119466517866
0.8891258,0.01682983,-0.01869809,0.889481618681981
0.8706251,0.0209134,-0.02905964,0.8713609457202565
0.8770717,-0.05949035,-0.03466511,0.8797701623352117
0.9999121,-0.06239034,-0.0636121,1.003874126331651
1.096327,-0.1400088,-0.1082962,1.1105239402826397
1.021884,-0.1551731,-0.09132615,1.037625205020306
0.9496116,-0.1117348,-0.1321107,0.9652461310153436
0.9308736,-0.1617317,-0.1281667,0.9534723409468887
1.026831,-0.1442042,-0.05240488,1.0382307187260713
1.163322,-0.1307713,0.01957065,1.170812631862636
1.19355,-0.1395643,0.02837501,1.202017028800753
1.262145,-0.08014728,-0.06473815,1.2663430086599052
1.331309,-0.111911,-0.1500687,1.3444063151152221
1.248634,-0.1986488,-0.2254473,1.28427983585149
1.071616,-0.3542814,-0.2368033,1.1532354333495176
0.9195979,-0.5996369,-0.2453873,1.1249176132176568
0.9270481,-0.7052958,-0.3439487,1.2145620829924422
1.129003,-0.7171042,-0.3264045,1.376744749504021
1.34253,-0.7248091,-0.2539724,1.5466858156408398
1.383667,-0.6129474,-0.2022862,1.5268132134502244
1.235625,-0.3086707,-0.1004721,1.277552889136845
1.014508,0.01728794,-0.05640061,1.0162216213709565
0.9021875,0.02149429,-0.05011897,0.9038341666548765
0.8789298,-0.09965244,-0.06875687,0.8872292315395106
0.8510185,-0.06702673,-0.09101542,0.8584922111204732
0.8106793,-0.1584202,-0.0446553,0.8272194285887028
0.729576,-0.2919344,0.03140218,0.7864432151071763
0.692121,-0.2608481,0.1598084,0.7567112623882176
0.6891521,-0.2498089,0.2124951,0.7632098472750664
0.6880091,-0.1986219,0.1483016,0.7313005848520703
0.7459241,-0.09871112,0.1561823,0.7684657175214482
0.7857831,-0.072007,0.1692605,0.8070249098725887
0.8140415,-0.05810614,0.1469538,0.8292377865017908
0.8391579,-0.1022491,0.1489515,0.8583865148844487
0.9010112,-0.1472974,0.1315922,0.9224067506653667
1.145562,-0.1267237,0.1235388,1.1591518567863013
1.427226,-0.1106376,0.1234141,1.4368179333821562
1.514249,-0.05969589,0.1301066,1.5210001185560282
1.470039,-0.03968365,0.1944428,1.483373673782221
1.478531,-0.1593234,0.2494275,1.5078633696409
1.468493,-0.3957506,0.2037275,1.5344690035010842
1.269186,-0.5865488,0.1243345,1.4036850306488595
0.9138541,-0.5583706,0.1023,1.0758124060593324
0.610973,-0.385176,0.07114486,0.7257479926320289
0.6844904,-0.205516,-0.01681902,0.7148753831136727
1.016004,-0.1429461,-0.1700749,1.0400111475994955
1.222658,-0.2121186,-0.2948806,1.2754769514524047
1.222854,-0.2767103,-0.1691939,1.26513519879865
0.9799119,-0.3612152,0.01820278,1.0445262532231434
0.7292139,-0.418812,0.04877316,0.8423391386096194
0.6630671,-0.3473951,0.0936202,0.7543911959020068
0.6789386,-0.2917684,0.07608251,0.7428828778053914
0.8305026,-0.2586036,-0.05716526,0.8717099617938225
1.004147,-0.1834707,-0.1546007,1.0324117743458663
1.0671,-0.130071,-0.1922031,1.0920452860072287
0.9931395,-0.0553433,-0.1051813,1.0002260010541768
0.8608152,-0.01058699,-0.03398741,0.8615509485496539
0.8773005,-0.03470308,-0.06588085,0.8804548582740963
0.9342905,-0.03180462,-0.03618293,0.9355316545510255
0.9964417,-0.05486228,-0.04278365,0.9988675447590691
1.015241,-0.0979143,-0.09651402,1.0245079083550555
0.932941,-0.1313263,-0.09686585,0.9471053264811219
0.9522608,-0.183635,-0.1022042,0.9751759548611112
0.9737536,-0.1789289,-0.07265412,0.9927186136671078
1.009667,-0.1411054,-0.008314656,1.0195132751968257
1.102513,-0.1230083,0.03019618,1.1097647346732922
1.151823,-0.1210144,0.01644529,1.1582793945760859
1.281677,-0.1259286,-0.04309856,1.2885695287802803
1.301161,-0.1080525,-0.1131926,1.3105372392160437
1.183986,-0.1411456,-0.1945043,1.208129484498185
1.102808,-0.2472377,-0.2050156,1.1486267284930516
0.9229288,-0.3907787,-0.2022015,1.0224436458041979
0.8426251,-0.5497989,-0.2935686,1.048083208765974
1.010625,-0.6227812,-0.3237775,1.2304678716669892
1.241063,-0.6331281,-0.292972,1.423699811674712
1.424501,-0.6011264,-0.2684916,1.5692812963419018
1.40042,-0.3852603,-0.1692362,1.4622730820700112
1.17969,-0.04795529,-0.05004708,1.1817245517274786
0.9655508,0.115676,0.01629312,0.9725917695086538
0.880394,0.03958161,-0.001886157,0.8812853435036921
0.9353212,-0.05245529,-0.06133469,0.9387967026016976
0.9424314,-0.1221564,-0.05754371,0.9520558850863137
0.8425056,-0.2026335,-0.01430281,0.866649059151111
0.748094,-0.206484,0.07584114,0.7797641653785455
0.6343208,-0.2055248,0.160313,0.6857868318192469
0.6099862,-0.188792,0.1542105,0.6568915144562989
0.6860974,-0.1427781,0.1611862,0.7190940266730144
0.7413853,-0.16811,0.1678662,0.7785192330691194
0.8663665,-0.1618866,0.1411687,0.892595532949555
0.8884649,-0.1456021,0.1556274,0.9136682864624228
0.8167027,-0.1758747,0.1613771,0.8508688375371318
0.9114157,-0.1918028,0.1570848,0.9445329674952432
0.9940148,-0.2254427,0.1559997,1.0311283819207093
1.168004,-0.1868619,0.09433327,1.1866126071791514
1.42644,-0.1016475,0.04928937,1.4309062617275972
1.350077,-0.0417991,0.1317128,1.357130550969084
1.267919,0.03329752,0.2582499,1.2943802865654128
1.434182,-0.1090401,0.2531482,1.4604286232799089
1.453681,-0.4510064,0.1131378,1.5262356909700414
1.259262,-0.595961,0.0159729,1.3932571305037023
0.9110551,-0.5125689,0.07608187,1.0481110262877291
0.5734377,-0.3542736,0.1377971,0.6879888227338146
0.6656137,-0.1686248,0.0002255551,0.6866410792239517
1.022623,-0.1076542,-0.2039964,1.0483137689258881
1.254678,-0.2222624,-0.2866656,1.3060607276697052
1.294955,-0.3477404,-0.192738,1.3546142530112253
1.044658,-0.4407015,-0.00689186,1.1338322833649206
0.7714721,-0.4783158,0.05200757,0.9092084430675702
0.7251818,-0.3876773,0.05437005,0.8240985586224092
0.7359304,-0.2953971,0.02225172,0.7933146534481311
0.8372317,-0.2456472,-0.1198652,0.8807196673878528
0.9762084,-0.1752657,-0.1563171,1.0040597300855463
1.028245,-0.1354687,-0.1438098,1.047053392755465
0.9868853,-0.08290738,-0.1442139,1.000806613671075
0.9138808,-0.03604295,-0.08111777,0.9181815198876067
0.9675864,-0.03616177,-0.08570883,0.9720478993416228
0.9857239,0.003314257,-0.07176091,0.9883381099273164
0.9659229,0.002350706,-0.04539801,0.966992013346061
1.017772,-0.06420919,-0.06709565,1.0220002398793155
0.9946159,-0.09901598,-0.02595846,0.9998693887072161
0.9977334,-0.12001,-0.04462582,1.0059154046868117
0.9950008,-0.1474213,-0.1134055,1.0122353674539237
0.9570568,-0.1976291,-0.1301943,0.9858831245870577
1.02252,-0.2211078,-0.1009567,1.051012875704066
1.115886,-0.1985687,-0.01568448,1.1335241931818483
1.266589,-0.191041,-0.01734125,1.2810328167356066
1.360794,-0.1422933,-0.09425115,1.3714557859942889
1.271317,-0.1015126,-0.1283569,1.281806231934207
1.124654,-0.1436749,-0.1423475,1.1426950194003034
0.9164386,-0.211191,-0.1680975,0.9553628188061382
0.7747496,-0.3419343,-0.269769,0.8887808062608294
0.8277863,-0.4714622,-0.3342214,1.00955966079994
0.9892349,-0.5716251,-0.2812606,1.1766258825303735
1.220434,-0.7558479,-0.2466273,1.4565679597587269
1.326366,-0.7905166,-0.2097566,1.5582557851890426
1.223971,-0.524615,-0.1478444,1.3398447199871184
1.16122,-0.1428214,-0.07737159,1.172525566304244
1.127098,0.1634532,-0.02290883,1.1391188106102932
1.045842,0.08094833,-0.07241871,1.051466875679806
1.010232,-0.1409729,-0.1039844,1.025307177289699
0.9553261,-0.08799239,-0.06416044,0.9615129640832284
0.9058391,-0.151744,-0.031993,0.9190181002971649
0.8377694,-0.2659897,0.06559013,0.8814250695526347
0.7121772,-0.200865,0.152918,0.755597132835243
0.6979931,-0.2194865,0.1368145,0.7443701355777985
0.6806242,-0.1703861,0.1283253,0.7132658041143849
0.6682773,-0.1379935,0.1391934,0.6964277122150582
0.7625339,-0.1747262,0.132795,0.793487054488383
0.7860815,-0.08630892,0.1326681,0.8018567073183502
0.8222244,-0.1072629,0.1313393,0.8395286209512217
0.8790955,-0.1611899,0.1266222,0.9026761675789939
0.9497554,-0.2105289,0.121285,0.9803406493609097
1.161362,-0.2772418,0.109041,1.1989639904485205
1.327232,-0.1708289,0.101997,1.3420621009879572
1.366755,-0.06040367,0.1475675,1.3760247092369813
1.304223,0.03254968,0.2794905,1.334230885187175
1.257384,0.04544338,0.3695875,1.3113636202053474
1.393857,-0.1506396,0.2424285,1.4227793937042417
1.4365,-0.3873123,0.02852438,1.4880714727410358
1.155021,-0.5561097,-0.02363755,1.282142832388456
0.7559953,-0.505033,0.01793165,0.9093452417991817
0.6390139,-0.3372251,-0.01179207,0.7226330918094638
0.8314748,-0.2158382,-0.1232898,0.8678345731752798
0.9708896,-0.1427991,-0.216303,1.004890633928872
1.076307,-0.2894403,-0.1503269,1.1246379961466266
1.14223,-0.4564626,-0.04699997,1.230957544060217
1.008727,-0.4545532,-0.05576517,1.1078170094128221
0.8620142,-0.4383152,-0.01035424,0.9671069774531965
0.7824476,-0.3860299,0.06405099,0.8748404767497616
0.790534,-0.3265993,0.008147035,0.8553814833720573
0.9067183,-0.2653769,-0.0590299,0.9465978574360445
0.9733763,-0.1860965,-0.07948528,0.9941887338179901
0.9874461,-0.1240684,-0.09736993,0.9999618350477056
0.9632673,-0.03598118,-0.07762212,0.9670593208675344
0.9147087,-0.03207012,-0.04356067,0.9163067338088012
0.9124822,-0.06174361,-0.01851378,0.9147561416806999
0.9349303,-0.05513257,-0.003658343,0.9365616101498078
1.001196,-0.127613,-0.01925825,1.0094797612523307
1.03712,-0.152144,-0.0286563,1.048611879899179
1.017548,-0.1370906,-0.04447647,1.0277041993180824
1.021803,-0.1564444,-0.1032165,1.0388502620554176
0.9848978,-0.1324747,-0.136472,1.0030941278708245
0.9663269,-0.1517759,-0.09617207,0.9828899574888864
1.027058,-0.1839913,0.008699452,1.043444590912613
1.151268,-0.1770218,0.08971094,1.1682477383906735
1.342202,-0.1704233,0.0009177465,1.3529786222426161
1.397118,-0.1334841,-0.1424534,1.4106912071918398
1.249816,-0.1319705,-0.138017,1.2643199512050936
1.049474,-0.168879,-0.1229052,1.070056765552202
0.8749095,-0.2342933,-0.2084506,0.9294146740048276
0.8157623,-0.3483454,-0.2850808,0.9317100999404752
0.8870901,-0.4232785,-0.312615,1.0314173123936112
1.0405,-0.5578296,-0.2677017,1.2105694167700793
1.213524,-0.7482751,-0.2162181,1.4419800243497205
1.241422,-0.6587366,-0.2197912,1.4224523408047807
1.154788,-0.2946618,-0.1469417,1.200813376225519
1.133362,0.01307898,-0.03606935,1.1340112348523108
1.084862,0.08217552,-0.01871436,1.0881307836843326
1.01885,-0.05671542,-0.04806324,1.0215586309189866
1.038808,-0.1569222,-0.05792288,1.0521890028622871
1.002588,-0.180922,-0.04910151,1.0199639337311297
0.9323358,-0.2244455,-0.02669635,0.9593427549813531
0.8118157,-0.1884444,0.06840589,0.8362029588829152
0.6850868,-0.1908644,0.154985,0.7278691454833074
1.006161,-0.5871086,-0.3225881,1.2087677809970656
1.213647,-0.6239391,-0.3315283,1.404332601209094
1.371437,-0.5684737,-0.2410233,1.504025938507571
1.350505,-0.4209315,-0.117261,1.4194355303564337
1.141447,-0.1821402,-0.06858119,1.157920414314756
0.9628368,-0.007782575,-0.05184513,0.9642630291640283
0.8471148,-0.047273,-0.05470437,0.850194559501022
0.8247263,-0.1254901,-0.07453612,0.8375421591146051
0.7822288,-0.1666669,-0.03474615,0.8005417203649492
0.6721079,-0.2370545,0.02667553,0.7131868262338003
0.6710693,-0.2325504,0.07148411,0.7138092685901061
0.6064601,-0.2079402,0.122225,0.6526652513295388
0.511786,-0.2037995,0.1642339,0.5748320797463029
0.575214,-0.154979,0.1673403,0.6187830090113092
0.7004836,-0.164042,0.1390239,0.7327446324635684
0.8878832,-0.1781342,0.1372536,0.915918621256736
1.011907,-0.1685031,0.1137208,1.032124746196529
1.088072,-0.188375,0.06969789,1.1064554277870629
1.347332,-0.1141115,0.09396125,1.3554164190970288
1.606267,-0.01291243,0.09417065,1.6090769147119497
1.571708,-0.01619161,0.09894245,1.5749024775872298
1.461063,-0.1048534,0.2129342,1.4802163014202352
1.548182,-0.3486817,0.2662342,1.6091386150013707
1.51779,-0.7129838,0.1086275,1.680426230727993
1.257735,-0.8206217,-0.06656917,1.5032460740445588
0.871213,-0.4982856,0.008184987,1.0036770519188682
0.5023971,-0.1864929,0.07647296,0.54132297332552
0.747817,-0.1625063,-0.08303643,0.7697620487760063
1.186022,-0.2264581,-0.215687,1.2265611837607653
1.169023,-0.2955699,-0.2990202,1.2423322503754983
1.117778,-0.3941253,-0.2487712,1.2110530621461348
0.970007,-0.4467854,-0.06637495,1.0700170128038444
0.7469696,-0.4148658,-0.03699657,0.8552461409007145
0.6489825,-0.3631656,0.00306804,0.7436914354751247
0.5521873,-0.2924534,0.00427955,0.6248664817391413
0.7095839,-0.2124624,-0.1281126,0.7517063394915131
0.8879407,-0.1921279,-0.1378651,0.9188898750519074
0.9139803,-0.116488,-0.1661981,0.936243158253079
0.9481403,-0.004881462,-0.1466676,0.9594296441350495
0.8759025,0.009449491,-0.03279943,0.8765673305540961
0.9299051,0.002317845,-0.08017228,0.9333576280782477
0.988374,-0.03943951,-0.1115432,0.9954298188678496
0.9739776,-0.133775,-0.1227721,0.9907578435042389
1.080284,-0.2299982,-0.1606027,1.116111965667661
1.074125,-0.2743809,-0.09228435,1.1124503562697674
1.123046,-0.1907581,-0.03183659,1.139576473649065
1.220295,-0.07731894,0.01216812,1.2228025877679756
1.215333,-0.007079185,-0.03739809,1.2159288765733431
1.28022,-0.02208573,-0.2036347,1.2965022633662167
1.226038,-0.2038379,-0.2647375,1.2707497829339416
1.07567,-0.4743951,-0.2329029,1.1984825491563988
0.9756127,-0.6852858,-0.2043595,1.209627865636031
0.9746679,-0.7046634,-0.2233825,1.2232856428063807
1.125271,-0.6391197,-0.2374588,1.3157110230086733
1.35697,-0.6093543,-0.2117471,1.5025036033856625
1.665851,-0.490534,-0.2354019,1.752454625341441
1.572027,-0.3615112,-0.2073912,1.6263364800347684
1.062818,-0.2196569,-0.09629759,1.0895432440621244
0.8039385,-0.002672626,-0.01499838,0.8040828353562899
0.728787,-0.01932162,-0.01890691,0.7292882061395018
0.7405897,-0.1600269,-0.06661301,0.7606043686246879
0.6974795,-0.1514791,-0.02204223,0.7140794287475539
0.5631318,-0.2153732,0.004854226,0.6029316735414876
0.6323486,-0.247691,0.0349193,0.6800256913642676
0.5532989,-0.1726811,0.1858739,0.6086933067971342
0.5046181,-0.217394,0.2123767,0.5890699795325679
0.6812638,-0.1598578,0.1479655,0.715240288715289
0.6810815,-0.04958641,0.1436853,0.6978368628376034
0.7790144,-0.09533033,0.1379892,0.796864057755091
0.9154434,-0.104436,0.1463404,0.9329303346829924
1.106333,-0.1391287,0.1366328,1.1233868541551169
1.517004,-0.1703395,0.1466015,1.5335607849311028
1.581384,-0.1126542,0.1913564,1.5968981169926275
1.410164,-0.1352514,0.2472674,1.4380530641115856
1.362572,-0.2849444,0.2956172,1.423090051687243
1.386704,-0.5689427,0.1279522,1.50433225883916
1.349821,-0.7034549,-0.1076956,1.5259304933824378
1.025677,-0.5179238,-0.08717483,1.1523271332052234
0.6798715,-0.3525876,-0.007180959,0.7658947958813728
0.6423675,-0.2787803,-0.02829561,0.7008245873751948
0.7911075,-0.2155239,-0.03078849,0.8205178603442707
0.9214976,-0.2386122,-0.06563556,0.9541496924126285
1.055215,-0.2864327,-0.1306675,1.1011795418597914
1.076742,-0.3069561,-0.09978143,1.1240781626132834
0.896168,-0.3991307,-0.06275238,0.9830362460775057
0.8731038,-0.4987656,-0.06214334,1.0074418911402063
0.8300766,-0.4453299,-0.04347925,0.9429932804013678
0.6770528,-0.3421991,-0.04581337,0.7599997255916655
0.7128596,-0.2595581,-0.03793337,0.7595907826898157
0.7449033,-0.1440742,-0.05468765,0.7606766990772443
0.8835808,-0.06479684,-0.1253592,0.894778514285667
1.004042,-0.02054392,-0.1429737,1.0143785631137205
0.9107824,0.005760513,-0.1119751,0.9176579900375701
0.9207469,-0.0376202,-0.07627514,0.9246664427184916
0.9012177,-0.09312363,-0.06396481,0.9082713527223035
0.9170621,-0.1444454,-0.08991938,0.9327126372775028
1.030228,-0.2372321,-0.1130833,1.0632199367926185
1.043788,-0.2821484,-0.1217572,1.0880836017137654
1.094208,-0.2484591,-0.08614655,1.1253640742949425
1.117993,-0.2075504,-0.03465141,1.13762306446562
1.138578,-0.1275164,-0.03762628,1.1463141067349727
1.219794,-0.04025196,-0.06993108,1.2224598065661743
1.282264,-0.06706285,-0.1431325,1.2919695445723063
1.314305,-0.2091367,-0.2293209,1.350453208181868
1.154318,-0.417848,-0.2175084,1.2467385051800397
0.9412115,-0.6073718,-0.1832221,1.1350550335097853
0.931468,-0.6547192,-0.2283307,1.1612169368533727
1.121683,-0.606308,-0.2778773,1.304989631073094
1.402949,-0.5645601,-0.3029777,1.5423324835489591
1.526301,-0.486994,-0.2576529,1.622696187065037
1.419629,-0.3404633,-0.1384545,1.4664349303184714
1.171893,-0.1505513,-0.07855278,1.184132356042355
0.9011897,-0.001338739,-0.01527037,0.9013200606932795
0.7687118,-0.02466853,0.0134874,0.7692257651628427
0.7037209,-0.129568,-0.04874401,0.7172077455184726
0.6241057,-0.1568731,0.01331758,0.6436570921019642
0.6456213,-0.2025748,0.07941251,0.6813000508977157
0.6729455,-0.2720257,0.09772945,0.7323965270453174
0.6188456,-0.262367,0.1894952,0.6983657710336325
0.6515255,-0.2321577,0.1771913,0.7139883973953849
0.6804168,-0.1680471,0.1557108,0.7179503484066917
0.7034129,-0.09416305,0.1650726,0.7286325213318937
0.8398542,-0.10323,0.08581968,0.8505154482035834
0.9234053,-0.1514938,0.06527293,0.9380236003946355
1.06215,-0.2121185,0.07112835,1.0854566424855359
1.287171,-0.2148491,0.0680034,1.30674931850886
1.412721,-0.1549272,0.1066338,1.4251855417605386
1.46146,-0.1349276,0.1690507,1.4773790739049506
1.398223,-0.1574254,0.239288,1.4272592831150757
1.361032,-0.2891757,0.1934233,1.4047929610719794
1.400232,-0.5572548,0.05064369,1.507895006054419
1.307531,-0.7255281,-0.09328372,1.4982423676654084
1.013558,-0.5568624,-0.1327446,1.1640518376459528
0.6121034,-0.2754852,-0.02342083,0.671648124383958
0.5608616,-0.202228,-0.0006127835,0.5962065697744179
0.9181074,-0.2067083,-0.06878471,0.943599944655273
1.143657,-0.2500631,-0.09629954,1.174630362724726
1.142805,-0.3616368,-0.1024845,1.2030326329237666
1.00742,-0.4228499,-0.04036397,1.0933098117204338
0.8174045,-0.443503,0.004943292,0.9299835825244697
0.7207537,-0.3344972,-0.02158871,0.7948838564664615
0.6634421,-0.1637212,-0.04180564,0.6846223505829032
0.6887516,-0.1050882,-0.06390826,0.6996474554931417
0.8177054,-0.07884157,-0.08695875,0.8260871252784342
0.9424158,-0.04980204,-0.1063151,0.9497003126069885
0.987241,-0.01001882,-0.08887563,0.9912840392355207
0.8957226,-0.008563002,-0.0401705,0.896663799996555
0.8491496,-0.02714432,-0.02923374,0.8500861537766686
0.8978223,-0.01040239,-0.0498168,0.8992634795527071
0.9284446,-0.0868264,-0.09856191,0.9376900602592352
1.016752,-0.1953367,-0.1432554,1.045209627538921
1.069253,-0.2565646,-0.1427228,1.1088269340262258
1.038532,-0.2674806,-0.1130059,1.0783621468853448
1.078906,-0.2273132,-0.07618548,1.105221097832045
1.212589,-0.2332314,-0.05186056,1.2359039147726951
1.344712,-0.216038,-0.04331363,1.3626440661199009
1.333417,-0.2153569,-0.1291813,1.3568593510516482
1.256388,-0.2832436,-0.2495926,1.31188193426837
1.163567,-0.3429013,-0.2190451,1.2326598155471362
0.9932679,-0.4946146,-0.2152188,1.1302848559442924
1.043854,-0.6208741,-0.3382989,1.26077831798775
1.266733,-0.6190648,-0.3292299,1.4478418584023776
1.327155,-0.587844,-0.1861052,1.4633988204956434
1.343425,-0.4308914,-0.06801483,1.4124744763424537
1.221818,-0.1906468,-0.04779458,1.237525656037731
0.9719166,-0.04019906,-0.09600861,0.9774740380053968
0.8794728,-0.03147776,-0.07793455,0.883480078665139
0.7727721,-0.1069059,-0.06789009,0.7830802349142953
0.647746,-0.1627825,-0.05226767,0.6699290500862602
0.5917238,-0.2299756,0.08452649,0.640445594561724
0.5446894,-0.2782035,0.1726113,0.6355142726739502
0.6217926,-0.2607286,0.1854837,0.6992922445147022
0.6831746,-0.2282108,0.1685944,0.7397511575071444
0.6875662,-0.1540641,0.1264808,0.7158773771113948
0.7377752,-0.09567744,0.1465572,0.7582515619053044
0.7750419,-0.1099215,0.1245018,0.7926369794055157
0.8850879,-0.1570117,0.08968822,0.903369936111485
1.077227,-0.2047234,0.1344506,1.1047201654160748
1.356645,-0.181362,0.1442392,1.3762931293462306
1.630254,-0.1381485,0.1210916,1.6405719393427434
1.64462,-0.1540827,0.1013696,1.6549296718119022
1.515223,-0.256013,0.08858355,1.539249960606984
1.447087,-0.5429941,0.04663852,1.5463112654804014
1.389547,-0.7614166,-0.02363573,1.58466234627355
1.125329,-0.556274,-0.01727709,1.2554300534700722
0.7694286,-0.3083212,0.005056622,0.8289197200534265
0.7170612,-0.2926431,0.01630629,0.7746500136297773
0.7549064,-0.151837,0.02927969,0.7705812400885815
0.8796127,-0.1085413,-0.09542979,0.8914070678575665
1.24335,-0.3713105,-0.2303552,1.3178976546292545
1.160829,-0.4920278,-0.1338371,1.2678831541393119
0.8262597,-0.5216982,0.02469323,0.9774885469074116
0.7508646,-0.4909176,0.04736218,0.8983545589672668
0.5308639,-0.2826554,0.01981763,0.6017501922984213
0.5324939,-0.1513556,-0.04120246,0.5551179279203848
0.8236303,-0.04116952,-0.1334348,0.8353841309877513
0.9574939,0.001909547,-0.1772034,0.9737552361237989
1.095651,-0.01795128,-0.1729621,1.1093643451504327
0.9604362,0.04484555,-0.09309242,0.9659787866649551
0.7983907,-0.0399283,-0.00143828,0.7993897970556907
0.8912692,-0.1230111,-0.0007673371,0.8997183483724642
0.8269737,-0.138153,-0.02674106,0.8388604390425225
0.904725,-0.2181688,-0.06969412,0.9332642826557837
1.060758,-0.2500557,-0.1451353,1.0994542477850455
1.0827,-0.3144307,-0.1702352,1.1402131285077937
1.126438,-0.2678208,-0.1146311,1.16349939314288
1.074493,-0.1115189,-0.03330582,1.080777937298908
1.127491,-0.04914907,0.01693574,1.1286887992056147
1.226015,-0.04129992,-0.06369264,1.2283628193686
1.238373,-0.2035158,-0.2355804,1.2769042614240114
1.206924,-0.4322948,-0.2591658,1.3079416071723846
1.008885,-0.6258132,-0.2099096,1.2056339181905094
0.9722674,-0.7618258,-0.2449282,1.2592347953434417
1.208702,-0.6865995,-0.285138,1.4190430145870314
1.462371,-0.5981738,-0.3184499,1.6117540679202427
1.477899,-0.4596186,-0.2344818,1.5653806010674212
1.142841,-0.1650133,-0.06985352,1.1568035506144854
0.857728,-0.02087963,-0.0462571,0.8592281421330117
0.765058,-0.04586579,-0.07020569,0.7696403400060967
0.731871,-0.1080665,-0.07088613,0.7431947069843992
0.6946645,-0.1828232,-0.08111337,0.7228848240288677
0.6244161,-0.2216626,-0.03220258,0.6633752937339665
0.5989612,-0.2401355,0.07546352,0.6497032555840246
0.5384868,-0.240728,0.1728763,0.6146578063117152
0.555607,-0.209231,0.1997079,0.6263864582926502
0.6751468,-0.1630966,0.197643,0.7221401927124678
0.7404786,-0.1099409,0.1942306,0.7733828835235041
0.8297249,-0.06317991,0.1500203,0.8455419570427644
0.8564301,-0.07379588,0.1291898,0.869257356894392
0.9260346,-0.1443004,0.1487042,0.9489339412914685
1.127927,-0.1971597,0.1515609,1.155016004669156
1.244485,-0.175641,0.149246,1.2656488630824902
1.32324,-0.09376926,0.1714263,1.3375887813721516
1.400131,0.002859263,0.2572712,1.4235741859472386
1.412703,0.04504426,0.3496802,1.4560339947405032
1.393047,-0.189869,0.264179,1.4305316233523115
1.504775,-0.7463176,-0.03215886,1.6799916526492804
1.586018,-1.065169,-0.2741297,1.9300738813079383
1.21869,-0.7183037,-0.1960232,1.4281423656176335
0.7803656,-0.2419222,0.005663676,0.8170244168579254
0.7635717,-0.1828433,0.01651702,0.7853319204931507
0.980142,-0.201387,-0.05006825,1.0018691998415075
1.070878,-0.2325865,-0.08933303,1.0994801322057761
0.9720425,-0.4340255,-0.08172071,1.0676717805109415
0.9133384,-0.4444049,-0.01898566,1.0158952718386898
0.860071,-0.3935625,-0.06754059,0.9482485421791051
0.746394,-0.3709161,-0.09864751,0.8392938029703365
0.6859697,-0.1644122,-0.06207922,0.7081240218935794
0.7068351,-0.08344408,-0.1054344,0.7195103792040921
0.8112918,-0.06811534,-0.0837193,0.8184393719042636
0.914774,0.001640365,-0.07002371,0.9174516237031233
0.9755141,-0.03855268,-0.09070906,0.9804805974623242
0.9558153,-0.0518576,-0.05149804,0.9586053132106517
0.910926,-0.06935006,-0.06746746,0.9160499257446917
0.9332226,-0.1038901,-0.06751137,0.9414113655082177
0.9305256,-0.1563246,-0.09608549,0.9484448820089969
0.9837638,-0.3003846,-0.1720539,1.0428924520835356
1.063977,-0.3293688,-0.1601116,1.125240679764556
1.069992,-0.2408093,-0.1208546,1.103393779831865
1.113564,-0.1390979,-0.02914503,1.122596294601987
1.158918,-0.02266441,0.0425182,1.1599191366366397
1.230775,-0.01274498,-0.04229615,1.2315674969099433
1.300981,-0.1214128,-0.201078,1.3220155038609946
1.228644,-0.2977962,-0.3018163,1.2997467962707698
1.096737,-0.5431692,-0.2591866,1.2510165948608356
1.008931,-0.7191717,-0.2191837,1.258249256382685
1.1018,-0.7105951,-0.284692,1.3416251976643885
1.346484,-0.6613032,-0.3166238,1.533163955783164
1.44826,-0.6163237,-0.2932333,1.6010301992812566
1.335693,-0.4205139,-0.2065045,1.4154687700060569
1.111874,-0.1632934,-0.03586783,1.1243731709661473
0.897469,-0.03700247,0.02571826,0.8985995869376574
0.8194254,-0.04573115,-0.05708657,0.8226835361910723
0.8277542,-0.09865981,-0.07952948,0.8373981800290388
0.8013421,-0.1427925,-0.05437491,0.8157790694337335
0.7169772,-0.2208767,-0.03862347,0.7512220672727677
0.6215646,-0.271281,0.02854984,0.6787864364424098
0.607542,-0.2364657,0.114121,0.66185112501339
0.6727963,-0.2211668,0.171138,0.7285999106230594
0.7077828,-0.1994826,0.1630812,0.7532232587168561
0.7383306,-0.1438615,0.1193604,0.7616266218868468
0.7846703,-0.1361219,0.1202934,0.8054235863477429
0.8022113,-0.1706576,0.1282848,0.8301349144545662
0.8994277,-0.2337063,0.1321788,0.938647994381504
1.094814,-0.2608304,0.1432422,1.134534494857252
1.328854,-0.1926107,0.1348166,1.3494915156109912
1.527534,-0.08732984,0.1507228,1.5374342212108671
1.513023,0.01257829,0.2082345,1.5273370351361792
1.396682,0.001074952,0.2541102,1.4196104248665695
1.366356,-0.2714673,0.2005472,1.407424027481814
1.376357,-0.6935656,0.05204432,1.54210908959017
1.312936,-0.8263136,-0.02697129,1.5515548833751336
0.9618288,-0.5053749,0.002761684,1.0865201594807001
0.5628291,-0.2232121,0.02438905,0.6059662227823615
0.6609975,-0.2500618,-0.01086516,0.7068002904125857
0.9778207,-0.2933135,-0.06994996,1.0232590715623984
1.045076,-0.2728025,-0.1183122,1.0865554870558105
1.002013,-0.3198003,-0.1108455,1.0576336837106408
0.900915,-0.4317782,-0.03891859,0.9997974334173039
0.8028756,-0.5201161,-0.02247873,0.9568883319682515
0.8383605,-0.4416596,-0.07244858,0.9503474769664126
0.8077884,-0.2605688,-0.09742004,0.8543470389142819
0.7584392,-0.177132,-0.09505321,0.7846278597220112
0.8266398,-0.1239573,-0.07230478,0.8390034281087166
0.8948859,-0.06717111,-0.08126573,0.9010753858084656
0.9462709,-0.07718681,-0.08874725,0.9535525649943734
0.9289477,-0.06932793,-0.0685213,0.934047835909417
0.8926293,-0.07050284,-0.07492321,0.898538371502998
0.9108338,-0.1016766,-0.05280219,0.918011118385173
0.9011656,-0.1101517,-0.06102245,0.9099211916645598
0.9164847,-0.141579,-0.1066322,0.9334662525511729
0.9680811,-0.1593102,-0.1156771,0.9878977414012343
1.033312,-0.1740485,-0.1230057,1.0550625440838757
1.110376,-0.1821959,-0.05292373,1.126468432114244
1.136859,-0.1254359,0.05213891,1.1449458575958071
1.176079,-0.08101612,0.06062583,1.18042404126824
1.268492,-0.06967735,-0.04120486,1.2710722747564915
1.315132,-0.1347769,-0.1997062,1.3370189065664142
1.21604,-0.2787317,-0.2515318,1.2726794131265462
1.014863,-0.424341,-0.2237852,1.122538199256061
0.9293387,-0.601567,-0.2708872,1.1397074843706738
1.102667,-0.7014587,-0.3647768,1.3568275257058025
1.387514,-0.6816784,-0.3909074,1.5945811790552777
1.470479,-0.6172945,-0.27711,1.6186880308667417
1.305612,-0.4030069,-0.1209255,1.3717362109902398
1.09257,-0.1197755,-0.03482829,1.0996673974818814
0.9392957,0.003998997,-0.00847333,0.939342430286626
0.8925997,-0.03304168,-0.06424307,0.8955183689351868
0.85644,-0.1185763,-0.139314,0.8757614989925567
0.7455252,-0.1839012,-0.06956064,0.7710163148946263
0.658969,-0.2147629,0.08634716,0.6984404614693193
0.5799865,-0.2147543,0.1818784,0.6446576625910065
0.5397647,-0.2077355,0.2033152,0.6130554949410209
0.616147,-0.1776568,0.1588193,0.6606229138076654
0.6970332,-0.1280404,0.1428013,0.7229397189365722
0.7799716,-0.1238621,0.1491366,0.8037034540690553
0.8375817,-0.1356925,0.1087584,0.8554437142803143
0.8117284,-0.1775221,0.1187964,0.8393626605990584
0.8921776,-0.2747868,0.1220295,0.9414774847367567
1.077297,-0.3170279,0.1031258,1.1277013994019205
1.201894,-0.2570112,0.1240159,1.2353072037409358
1.299915,-0.08189758,0.1328824,1.3092532043362033
1.397653,0.1545673,0.2350879,1.4256897556497696
1.409702,0.2141882,0.3482105,1.4677829765103185
1.367369,-0.04501365,0.2565629,1.3919585958295357
1.454391,-0.5506779,0.01455233,1.5552205955226541
1.492751,-0.9543908,-0.1827313,1.7811676156738674
1.198097,-0.7592167,-0.1258727,1.423969927903388
0.7678388,-0.2960713,0.01758427,0.8231305145726059
0.5669624,-0.2214524,-0.006091507,0.6087073475300351
0.8276686,-0.2235042,-0.06887024,0.8600770598040954
1.096305,-0.1686732,-0.1154618,1.1151980670188055
0.9599774,-0.2830878,-0.1046251,1.0063010099217877
0.9083835,-0.3844578,-0.01686584,0.9865357771576233
0.9301307,-0.4631413,-0.03253477,1.0395679362634906
0.817014,-0.3864055,-0.06766997,0.9063113766614932
0.7918627,-0.2141839,-0.05709553,0.8223023642289259
0.7454259,-0.1811415,-0.08139078,0.7714249636108936
0.8006734,-0.1067161,-0.06498932,0.8103640115286662
0.9689153,-0.08626232,-0.09367176,0.9772473817040239
0.9624793,-0.0736305,-0.1345061,0.9746177427052876
0.9428657,-0.02926087,-0.07948273,0.9466622582092833
0.9252972,-0.09345512,-0.04542142,0.9311132440132461
0.8765976,-0.08039817,-0.01117912,0.8803477669586509
0.9119037,-0.1215832,-0.01848949,0.9201590589872982
0.9258548,-0.1897737,-0.1036956,0.9507754442317544
0.9326382,-0.161211,-0.1614947,0.9601476640331579
0.995629,-0.1886897,-0.1645987,1.0266321836805916
1.085065,-0.1631746,-0.0812145,1.100267149068993
1.156436,-0.1327923,0.01750195,1.1641667987402375
1.179934,-0.1037879,0.06832387,1.1864587324278022
1.235895,-0.03280148,0.02224528,1.2365303233635108
1.279533,-0.05215367,-0.1330088,1.2874843860260632
1.223357,-0.1321281,-0.2348931,1.252691084300603
1.112314,-0.3371689,-0.2636926,1.1918301426872748
0.9694454,-0.5939219,-0.2456451,1.16314621696276
0.9101939,-0.7091406,-0.2407609,1.1786853427163586
1.093336,-0.7070153,-0.3049617,1.3372568495980792
1.390273,-0.6571622,-0.3167255,1.5700433796516866
1.505174,-0.5645561,-0.2948934,1.6343911642219466
1.372556,-0.2888566,-0.2210947,1.4199404828610425
1.120756,0.008542264,-0.06599904,1.1227300900444273
0.8550287,0.04402329,0.02442001,0.8565094656654497
0.7111359,-0.02906663,0.0239589,0.7121328289986194
0.7358651,-0.1051523,-0.007523771,0.7433781397938471
0.7496771,-0.2084716,0.004759726,0.7781380451196079
0.7065391,-0.2795882,0.0325201,0.760542318554372
0.6901249,-0.2790196,0.06440777,0.7471764688616358
0.6286253,-0.2246774,0.1561032,0.6855785227974182
0.6002353,-0.1741282,0.2013836,0.6566265298861218
0.693042,-0.1232065,0.2132001,0.735487143358917
0.7785998,-0.1022083,0.2121527,0.8134328203768397
0.8489282,-0.1101247,0.1666639,0.8721143238524064
0.9095023,-0.115549,0.1581633,0.9303556495089284
0.9979459,-0.1685033,0.1426039,1.0220691041866543
1.185943,-0.191606,0.1261805,1.2079301209363271
1.367512,-0.1186236,0.1358887,1.3793572298025811
1.437857,-0.008654204,0.1601793,1.4467774728147944
1.35807,0.03925332,0.2438529,1.3803474870008032
1.311941,-0.07529987,0.2720661,1.341968412695406
1.455931,-0.3053224,0.2207572,1.5038918132813277
1.508028,-0.535474,0.1419153,1.6065555719719409
1.262929,-0.6205839,0.01534799,1.4072489462697244
0.9364052,-0.5428399,-0.02354524,1.0826283914371115
0.8595731,-0.407016,0.003262404,0.951072332569647
0.9687125,-0.2054418,-0.07275017,0.9929263961032151
1.003762,-0.1392239,-0.1448461,1.0236707672198224
1.043422,-0.2799532,-0.09442106,1.0844439131858152
1.03581,-0.3340202,-0.03893054,1.089030503270102
0.8982801,-0.3551793,-0.04302825,0.9669079084910633
0.8349391,-0.3956239,-0.03776523,0.9246987528687237
0.8144965,-0.3480139,-0.03228495,0.8863185325276474
0.7845893,-0.3119337,-0.04302069,0.8454192939827291
0.7993621,-0.2223182,-0.05665469,0.8316338754924826
0.857585,-0.1321172,-0.103974,0.8739093656877926
0.9614797,-0.1719984,-0.1363382,0.9862123340812009
0.9377719,-0.1383101,-0.1098989,0.9542659945805624
0.8676622,-0.03137431,-0.06837783,0.8709176587211476
0.9089965,0.01131039,-0.03499927,0.9097403535266175
0.8923367,0.005353156,-0.03104612,0.8928926609694497
0.9047492,-0.02037065,-0.04214887,0.9059594944170184
0.9609167,-0.05754661,-0.05696476,0.9643223011748923
0.9469053,-0.1677189,-0.1200504,0.9691085466166625
0.9962568,-0.254897,-0.1728832,1.042779311742173
1.053109,-0.244858,-0.1398396,1.0902059987787447
1.115646,-0.2492786,-0.06300481,1.1448910095799931
1.241874,-0.2318387,-0.0001295886,1.2633290274061209
1.304293,-0.1761314,-0.02692199,1.3164069634655233
1.318006,-0.1185904,-0.1332536,1.3300225640646552
1.291535,-0.1031634,-0.2068162,1.3120511742714154
1.168901,-0.2468056,-0.2381715,1.218182340786719
0.9761425,-0.4666451,-0.2372593,1.107656898636374
0.8775114,-0.5963506,-0.229136,1.085432449186185
0.9971213,-0.5920081,-0.2493102,1.1861197465700248
1.198313,-0.5465297,-0.238351,1.338454316796838
1.440296,-0.5257542,-0.205533,1.5469692500249124
1.565606,-0.4036824,-0.1738864,1.626135943705421
1.317137,-0.2174132,-0.1295656,1.3412328735184655
0.9750094,-0.08973729,-0.05841309,0.9808711436209409
0.800161,-0.05153336,0.02892123,0.8023401714102332
0.7458828,-0.1213991,0.0129936,0.7558093188480874
0.7486778,-0.1627565,-0.00873119,0.7662143043456615
0.7025033,-0.1815907,0.06746232,0.7287230155945142
0.6886599,-0.2153444,0.09217475,0.7274076250747805
0.6758693,-0.1621718,0.1289626,0.706916088087186
0.6048004,-0.1230583,0.1983097,0.6482697017084325
0.6722986,-0.1077371,0.1851184,0.7055930217178525
0.7769362,-0.08880421,0.174643,0.8012591491104261
0.8379409,-0.122333,0.1719769,0.8641101601737015
0.9081196,-0.1325617,0.1443869,0.9290325016395605
0.917808,-0.1573993,0.1596526,0.9447936373575184
1.040066,-0.1788706,0.1919844,1.0726555764753753
1.313398,-0.1448001,0.1891239,1.3348217951903618
1.53576,-0.1279332,0.1942248,1.5532704060134797
1.586787,-0.1144386,0.2420021,1.6092091824692556
1.503688,-0.2425623,0.2393264,1.541814254851164
1.443746,-0.5581129,0.06895612,1.5494022938371637
1.2546,-0.7020143,-0.1090586,1.4417832762376077
0.8584967,-0.4634626,-0.008495653,0.9756466274371814
0.6262108,-0.1529147,0.109824,0.6538992143203186
0.8157933,-0.1279267,-0.04453657,0.8269627893473472
1.158244,-0.2027668,-0.1469593,1.1850065715322975
1.200705,-0.2433517,-0.1376768,1.2328290425586712
1.055502,-0.3925392,-0.1141389,1.1319006953058426
0.9055715,-0.4549233,0.007460892,1.0134449247021642
0.7208372,-0.3679007,0.03504937,0.8100528700657302
0.6533685,-0.2929951,0.008018882,0.7161011296491508
0.6565418,-0.2001891,0.004148622,0.6863964029411495
0.7639369,-0.1512222,-0.09870409,0.7849905976106837
0.94157,-0.1614871,-0.1345428,0.9647455174284305
0.9886291,-0.1251665,-0.1248218,1.004308036333624
1.067192,-0.08486706,-0.1518884,1.081282233642819
1.02285,-0.07985317,-0.09153649,1.0300376596321947
0.8427791,-0.07015029,-0.01135591,0.8457698453337186
0.8970079,-0.07675292,0.001608938,0.9002870498193474
0.9613123,-0.1299183,-0.04821415,0.9712490448213592
0.9484843,-0.1838305,-0.09247865,0.9705505761074805
0.9984439,-0.2161496,-0.1071138,1.027172934406768
0.9921339,-0.2124519,-0.1242103,1.0222004128197708
1.044492,-0.1521151,-0.0876526,1.0591437673889084
1.16287,-0.07635448,-0.05268474,1.1665643254209936
1.206525,-0.01220128,-0.06298797,1.2082296682433185
1.262947,-0.00980599,-0.07384239,1.2651418816914537
1.283032,-0.1028913,-0.1343369,1.2941422392230693
1.183609,-0.2583485,-0.2231336,1.2318534067746088
1.035654,-0.4676797,-0.2470053,1.162890849450704
0.9462404,-0.6427604,-0.2667193,1.1745854636393258
1.056505,-0.6943568,-0.3527605,1.3125449139330394
1.269395,-0.6853733,-0.356691,1.4860446480031781
1.391532,-0.6508953,-0.2433999,1.555400112481062
1.386007,-0.4780256,-0.1394711,1.4727443994256333
1.221682,-0.1642568,-0.05557211,1.2339268474589942
1.033123,0.008373884,-0.03609442,1.033787242239612
0.9368688,-0.03687647,-0.07185858,0.9403439147315822
0.8333333,-0.05970366,-0.1031577,0.8418137721465334
0.7606241,-0.06802604,-0.1074803,0.7711864745358166
0.7399939,-0.1698354,-0.005971797,0.7592566743136205
0.6784778,-0.2464417,0.1203109,0.7318062238397129
0.6484277,-0.2279849,0.1675314,0.7074619189336343
0.6675078,-0.1763776,0.1847135,0.7146990960711017
0.6663426,-0.1227764,0.1932844,0.7045887908951434
0.7197906,-0.08935757,0.1843346,0.7483732544137484
0.8075091,-0.1072288,0.1633007,0.8308044780528929
0.846576,-0.1472438,0.1487715,0.8720691598873853
0.896934,-0.1889399,0.1371157,0.9268169190053125
1.01171,-0.2227229,0.1402645,1.0453883222251243
1.295889,-0.167243,0.1424197,1.314375095746298
1.633899,-0.05295318,0.1232212,1.6393942312947647
1.604476,-0.006957867,0.1451984,1.611047554186949
1.385418,-0.06606514,0.1929278,1.4003459477786409
1.395214,-0.2492823,0.2320851,1.4361849687736257
1.413709,-0.4319169,0.1990976,1.4915646816388388
1.283582,-0.454383,0.03405293,1.3620595667791424
0.9572589,-0.460889,-0.09030905,1.0662640369355578
0.5530103,-0.4797241,-0.05948417,0.7345025326760207
0.6883088,-0.3194629,-0.0268805,0.7593076516894189
1.055016,-0.133938,-0.1097605,1.0691330672373058
1.070411,-0.1269589,-0.1515834,1.088520003658991
1.067013,-0.2036304,-0.07925125,1.0891569412163347
0.9908911,-0.3113238,-0.052933,1.0399949918122924
0.8743572,-0.3904646,-0.04803188,0.9587857834476554
0.8613918,-0.3667353,-0.02699704,0.9365999431678883
0.7053164,-0.3050317,-0.02664458,0.7689118907633217
0.6967407,-0.2401241,-0.02677049,0.7374441304750754
0.8071653,-0.174397,-0.06943648,0.8287047483198587
0.8474147,-0.1121115,-0.1160581,0.8626413766936698
0.9668974,-0.06208234,-0.1302047,0.9775981091270204
0.9837945,-0.02699237,-0.1238095,0.9919218711968785
0.9805003,-0.003506916,-0.08972169,0.9846030258009454
0.9731412,-0.02953626,-0.05557699,0.975174337033993
0.9120723,-0.05821054,-0.03418034,0.9145669155599808
0.9492316,-0.0869566,-0.06581503,0.9554756401374244
0.9506708,-0.1683633,-0.1122667,0.9719696408265127
1.005042,-0.2180084,-0.1216604,1.0355859873340891
1.113077,-0.2124887,-0.07561365,1.1356977060921682
1.171538,-0.1949481,0.04462126,1.188485214035748
1.276062,-0.1572364,0.07340672,1.287806685752997
1.327055,-0.1041555,-0.04463471,1.3318842286557921
1.330177,-0.06771733,-0.1803091,1.3440490540356549
1.188936,-0.1149748,-0.2402847,1.2184107492078071
0.9115215,-0.2768574,-0.2133782,0.9762436791765926
0.8593224,-0.5102275,-0.2574005,1.031999082508439
1.039191,-0.6969413,-0.3549599,1.3006312470238057
1.282591,-0.7606242,-0.3549742,1.532839042291225
1.443974,-0.753765,-0.2784967,1.6525080937205392
1.39452,-0.5939979,-0.1482063,1.5229854375417053
1.190673,-0.2499662,-0.04638349,1.2175125141927783
0.9654998,-0.003333395,-0.03348249,0.9660859446544423
0.8778383,0.02461004,-0.04518221,0.8793447373562747
0.8828304,-0.02819067,-0.06915218,0.8859832126163347
0.8138149,-0.0740909,-0.08130194,0.8212150500158796
0.7278475,-0.1302709,-0.0320612,0.7401083780018303
0.6660936,-0.2124713,0.08236377,0.7039946930860081
0.5685376,-0.2227969,0.1741447,0.6349801869361437
0.5518265,-0.1611301,0.1635055,0.5976700124303628
0.6271123,-0.1138337,0.1581444,0.6566868350426556
0.663921,-0.08276317,0.1975292,0.6976092182605451
0.7361767,-0.1026862,0.1850662,0.765996140770807
0.8114272,-0.1497164,0.1567755,0.8398855033449798
0.9205561,-0.1738734,0.1510975,0.9489393800348999
1.263073,-0.1658454,0.1415586,1.2817554124185002
1.584828,-0.09633296,0.1338216,1.59338258098704
1.587756,-0.008205672,0.1399415,1.5939322670713525
1.430555,0.04800383,0.2462839,1.452393794781181
1.333511,-0.04984163,0.3686953,1.3844392364579048
1.297255,-0.389016,0.2442086,1.3761692568848354
1.248132,-0.7272841,-0.0003391153,1.4445676746127185
1.102643,-0.7466752,-0.08868152,1.3346197405004732
0.8244562,-0.4683649,-0.04691392,0.9493653781133039
0.7522414,-0.2179464,-0.02567336,0.7835986718726682
1.001456,-0.1025251,-0.1337963,1.0155426952913895
1.130022,-0.07914763,-0.2116602,1.1523949444885018
1.019914,-0.2178266,-0.111717,1.048882111179593
0.8833933,-0.391405,-0.02051383,0.9664380030458027
0.8144237,-0.4832604,-0.01183491,0.947083228879362
0.751602,-0.4584079,-0.02425562,0.8806995539274415
0.7123868,-0.324355,-0.04655012,0.7841352131560311
0.7894914,-0.2045899,-0.07058781,0.8186185538922056
0.8835537,-0.07945783,-0.1147054,0.8945043411415949
0.9770509,-0.009376132,-0.1255275,0.9851261474036417
0.994516,0.01273286,-0.08517028,0.9982375351463487
0.9043243,0.05425343,-0.03727044,0.9067165819235073
0.9116998,0.01195801,-0.009501755,0.9118277264216526
0.9272922,0.002181444,-0.03620205,0.9280011698823271
0.9238627,-0.01844213,-0.0657505,0.9263830357149666
0.9793704,-0.1649944,-0.1061392,0.998826842953352
1.04081,-0.2695227,-0.1611652,1.0871532383276656
1.149314,-0.2669859,-0.09716384,1.1839108721514282
1.181513,-0.1456225,0.02976798,1.1908253500444683
1.159398,-0.0008712758,0.08833271,1.1627584225373144
1.216726,0.08235654,0.09095123,1.2228969232912823
1.267122,0.05736702,-0.03163782,1.2688144425100278
1.308705,-0.1059857,-0.2104541,1.329749101836997
1.23595,-0.3762603,-0.2472432,1.3153985767828433
1.020761,-0.8063894,-0.284087,1.3315112868925896
0.899121,-0.9031254,-0.3341275,1.3174578729592874
0.987653,-0.6157108,-0.2677199,1.1942496315685636
1.24315,-0.6353544,-0.293163,1.426548870760606
1.425479,-0.6430275,-0.3230625,1.5968231348848563
1.376696,-0.4806172,-0.2398128,1.477766878907387
1.26338,-0.3735524,-0.2151057,1.3348935845670433
1.116883,-0.1130858,-0.1150228,1.1284707698343277
0.8164117,-0.02138864,-0.008102133,0.8167320138069091
0.6195613,-0.07654625,-0.04388792,0.625812817357298
0.6801853,-0.07838227,-0.04482335,0.6861522828728804
0.684617,-0.2145789,-0.01129027,0.7175458251644161
0.6835423,-0.2680562,0.04282481,0.7354713907415203
0.7266347,-0.2826799,0.1186537,0.788660011431916
0.6601287,-0.3075888,0.1721007,0.7483310907543665
0.6782235,-0.2285572,0.2213831,0.7491568504590344
0.7203311,-0.1767487,0.2139288,0.7719342770264448
0.7522326,-0.09384594,0.1728095,0.7775114585956233
0.8816088,-0.07410654,0.1275231,0.8938612848433595
0.9965453,-0.1363806,0.0970743,1.0105076064676308
1.166108,-0.1358229,0.1150341,1.1796137384717167
1.326501,-0.1295189,0.1170467,1.3379387050381268
1.455833,-0.07918222,0.1313439,1.463888919255945
1.500886,-0.02282921,0.2274182,1.5181893806493525
1.372477,-0.03655762,0.3175666,1.4092118792234984
1.410945,-0.260316,0.2356206,1.4539763684549207
1.434797,-0.6952041,0.01272377,1.594400535056616
1.23107,-0.8295009,-0.115363,1.4889303911767704
0.9530344,-0.539585,-0.06265342,1.0969740155746883
0.6455405,-0.2315468,0.004527231,0.6858257457627391
0.8026676,-0.1142502,-0.06030993,0.8129979532239949
1.140305,-0.177426,-0.1486297,1.1635575904196103
1.075154,-0.3226746,-0.1846962,1.1376237108532856
0.9967992,-0.4799192,-0.1504108,1.1164920476232332
0.8361244,-0.554654,-0.0117235,1.0034353553884825
0.6560375,-0.4763632,0.0118151,0.8108308678809041
0.6936883,-0.3486738,-0.04273022,0.7775620541568231
0.6695185,-0.1985013,-0.0355866,0.6992311449324179
0.814199,-0.0461393,-0.1301367,0.8258234722338545
1.061799,-0.01392626,-0.2026587,1.0810557829290204
1.080345,-0.007464586,-0.182122,1.0956137375704778
0.9902976,0.02129645,-0.1314573,0.99921163777833
0.8551833,-0.01058907,-0.01393365,0.855362351056368
0.8680587,-0.0136985,-0.0004895231,0.8681669166587755
0.9649066,-0.0481211,-0.0748596,0.969001726882326
1.003158,-0.1562429,-0.1428333,1.0252507831517612
1.047735,-0.2177459,-0.2025619,1.0891249838854218
1.015931,-0.251993,-0.1545898,1.0580710160825877
1.062461,-0.220385,-0.05774696,1.0866129191829268
1.168655,-0.1610364,0.03014318,1.1800829811714395
1.219184,-0.1386551,0.04770595,1.2279701626169148
1.292634,-0.1127811,-0.08104499,1.300073276733781
1.275439,-0.1772466,-0.2398291,1.309839302028829
1.187168,-0.3209165,-0.313294,1.26905807220641
1.009981,-0.5032244,-0.2404511,1.1537387696560994
0.8553391,-0.6589126,-0.1736547,1.0935843567186119
0.993047,-0.6466469,-0.278097,1.2172232740535363
1.225115,-0.6182845,-0.3309811,1.4116412344227056
1.416901,-0.613171,-0.2461904,1.5633927312400298
1.466497,-0.4235761,-0.16518,1.5353548762094742
1.222794,-0.1090405,-0.07661194,1.2300343029472038
0.9624305,0.07099033,-0.03179963,0.9655689052325037
0.8360801,0.02441055,-0.07422934,0.8397236470912011
0.7797683,-0.08202757,-0.09528688,0.7898396757729567
0.773596,-0.1809806,-0.07482503,0.7979997079616388
0.7283233,-0.274272,-0.04584604,0.7796036292184456
0.6639161,-0.2951185,0.05845104,0.7289005700083802
0.6161208,-0.3461603,0.2000132,0.7344638001038376
0.6091296,-0.342382,0.1906163,0.7242919834885998
0.6728169,-0.1626202,0.1345091,0.7051387156839852
0.7052046,-0.05463289,0.1877931,0.7318227442069029
0.723913,-0.07735909,0.1797145,0.7498878328689419
0.802111,-0.1285037,0.1327615,0.8231165610756109
0.9106459,-0.2071326,0.1406777,0.9444416786900396
1.041554,-0.2519997,0.1188711,1.078178520529555
1.228986,-0.1888494,0.1004907,1.2474650555678304
1.453274,-0.06767678,0.07273728,1.456666117382074
1.442327,-0.04374696,0.07970333,1.4451898118417976
1.303756,-0.02139421,0.1802029,1.316324619889005
1.374645,-0.04801399,0.224667,1.3937106873916552
1.338071,-0.3806047,0.1680017,1.4012560472326177
1.261893,-0.7179552,0.02289583,1.4520185369641219
1.260313,-0.7526903,-0.09378208,1.470961122603931
0.8917996,-0.4994818,-0.04962053,1.0233527212495606
0.631126,-0.1870607,-0.02403202,0.6587027184897375
0.8591232,-0.1609165,-0.06874959,0.8767629661862196
1.067153,-0.2543032,-0.08264595,1.100143625164752
1.09281,-0.3543432,-0.104688,1.1535824100731773
1.02099,-0.5326144,-0.1061234,1.156443191520846
0.9133641,-0.5634081,-0.06058362,1.0748641966903187
0.7710141,-0.4226315,-0.03590329,0.8799824847256246
0.6738745,-0.2631427,-0.03597773,0.7243240430701531
0.7297076,-0.1684385,-0.05290929,0.7507623477161824
0.851807,-0.1224508,-0.1172213,0.8685103320302701
1.03126,-0.07239001,-0.1793538,1.0492403379217938
1.081455,-0.03948857,-0.1710277,1.09560701821088
0.9384444,-0.02403254,-0.09787197,0.9438402287367774
0.8675833,-0.04824784,-0.02450328,0.8692692604908527
0.8832931,-0.06682982,-0.02272313,0.8861090598712099
0.941559,-0.07932315,-0.06753434,0.9473048082249758
1.00345,-0.1406133,-0.1221237,1.0205871842907788
1.004509,-0.173121,-0.1649589,1.0325796097208244
1.000787,-0.1815384,-0.1561937,1.0290419242981552
1.02085,-0.1931009,-0.1287488,1.046899676942471
1.067574,-0.1911377,-0.10014,1.0891629287839768
1.143488,-0.1778246,-0.0630881,1.1589506041547974
1.242991,-0.1371247,-0.07612672,1.2528467930792848
1.315694,-0.1209575,-0.1401032,1.3286498128146822
1.29844,-0.1716658,-0.1938255,1.3240029852458377
1.157944,-0.2582702,-0.2227616,1.207129046033853
0.9226666,-0.3617237,-0.2220615,1.01561262284372
0.7902553,-0.5197328,-0.2533073,0.9791783345270768
0.8545722,-0.6344204,-0.3284274,1.1138435464730942
1.011717,-0.6221262,-0.3335901,1.2336509440005508
1.231718,-0.6822302,-0.3183055,1.443566994859016
1.384546,-0.7028202,-0.2604248,1.5744030411870653
1.298797,-0.4440171,-0.09433533,1.3758357412088185
1.12571,-0.1350131,-0.03472561,1.1343092211833077
0.99025,0.006494709,-0.06186805,0.9922020456317338
0.8989501,-0.04929845,-0.06170985,0.9024132784093079
0.9077104,-0.1426029,-0.1029615,0.9245944126149693
0.8420683,-0.1596657,-0.06433727,0.85948324121674
0.7389575,-0.2171912,0.03767469,0.7711352581942329
0.7609366,-0.2098251,0.08974659,0.7944215079076082
0.718596,-0.1641976,0.1411655,0.7505123326448473
0.6888034,-0.1668118,0.1431495,0.7230270256505285
0.7212279,-0.1012227,0.1528939,0.7441722000927674
0.6936577,-0.1039357,0.2100251,0.7321708660782604
0.7356176,-0.1366888,0.1937716,0.772893598396157
0.7926706,-0.1317288,0.1609529,0.8195028937546285
0.8750265,-0.2190286,0.1365982,0.9123069502987743
1.087578,-0.2518882,0.09286329,1.120221925340182
1.343928,-0.2065902,0.08765253,1.3625362182105256
1.502555,-0.1306369,0.093836,1.5111395443712703
1.380306,0.01328533,0.1524223,1.3887597744629916
1.26484,0.03465281,0.2817426,1.2963024089677748
1.380402,-0.2438876,0.2757281,1.4286416024207644
1.405178,-0.6761654,0.04390496,1.560016828548257
1.309736,-0.8112613,-0.1642834,1.5493683622977623
1.020672,-0.5942595,-0.1187647,1.1870217937722711
0.6434437,-0.4363439,-0.04594327,0.7787981626809304
0.7728674,-0.3521579,-0.1266395,0.8587064501186771
1.054858,-0.2144918,-0.130964,1.0843817140321208
0.9875283,-0.1895274,-0.103396,1.0108528634117084
0.9450807,-0.3016131,-0.1113404,0.9982708431464179
0.8804121,-0.3973674,-0.01803204,0.9661011701036966
0.7892849,-0.4411323,-0.01187963,0.9042729040949069
0.840181,-0.4000088,-0.06087674,0.9325326430272924
0.729837,-0.295663,-0.02764355,0.7879357981425914
0.7083072,-0.2415983,-0.06562526,0.7512492947649253
0.928626,-0.1615857,-0.1139584,0.9494433649518279
1.052508,-0.04012452,-0.1598443,1.0653324680172478
1.079291,-0.01260462,-0.176508,1.0937015192411248
0.9897775,-0.02124957,-0.08359163,0.9935283611138093
0.9295744,0.0229037,-0.03097848,0.9303724043801818
0.9311688,0.04089776,-0.002067551,0.9320687934018579
0.9118109,-0.01976799,-0.02141746,0.9122766019033381
0.9951998,-0.09452588,-0.1162036,1.0064099863190819
0.9757328,-0.1709905,-0.1497854,1.0018622231321281
0.9440202,-0.2110863,-0.1575924,0.9800851639492815
1.001348,-0.2085651,-0.1335228,1.031516144401943
1.002209,-0.2391483,-0.07128473,1.0328099059386788
1.149072,-0.21056,-0.01060814,1.168252758361075
1.305151,-0.1746351,-0.0005436866,1.3167827636129388
1.336807,-0.1756863,-0.08408693,1.3509216272802487
1.321419,-0.1131837,-0.1429957,1.3339439619883513
1.212227,-0.1329657,-0.2040561,1.2364518061180951
1.095845,-0.2121263,-0.2231448,1.1382738830983208
0.9043502,-0.3412144,-0.1707734,0.9815498485329006
0.7680073,-0.5578559,-0.2209287,0.9746014100655662
0.8846807,-0.6107877,-0.2280762,1.098972387473962
1.094052,-0.6275131,-0.210354,1.2786599527206637
1.356619,-0.6548652,-0.2502479,1.5270519155504996
1.500035,-0.3934925,-0.1676262,1.5598204677807284
1.320337,-0.08128112,-0.07867402,1.3251739566790524
1.051022,-0.013046,-0.02580253,1.0514196180186104
0.907346,-0.0283886,0.01077936,0.9078539920758016
0.8594563,-0.03408001,-0.02918255,0.8606266321209173
0.8759319,-0.1217472,-0.03589897,0.8850806800470288
0.8488458,-0.2288214,-0.02887861,0.8796205996855303
0.720875,-0.2625878,0.00273596,0.7672161389145575
0.6649077,-0.2765762,0.09001185,0.7257401580911398
0.6642611,-0.2500672,0.1483101,0.7251015785743815
0.6623005,-0.2066739,0.1784196,0.7163725336063771
0.7117203,-0.1809023,0.1838734,0.7570210398693948
0.7481147,-0.1246426,0.1801643,0.7795322681488817
0.8114108,-0.1135395,0.1568264,0.8341901606671287
0.8770268,-0.1506124,0.1266181,0.8988282629065522
0.9815364,-0.193291,0.1275304,1.0084835735549291
1.232139,-0.2247763,0.115003,1.25774265665584
1.402925,-0.1496477,0.1205706,1.4160262212701606
1.399762,-0.02171481,0.1580555,1.4088245918841658
1.3575,0.02063809,0.1958179,1.3717058105582471
1.36426,-0.119838,0.2005551,1.3841202411568188
1.423006,-0.4361551,0.09456266,1.4913481967529534
1.394458,-0.6785046,-0.04750119,1.551495397684626
1.125125,-0.6273211,-0.0817213,1.290781313392745
0.724165,-0.3834708,-0.02451041,0.819796048951206
0.6772484,-0.1811477,-0.01441907,0.7012045308592314
0.9757823,-0.120244,-0.09099937,0.9873654854559617
1.123587,-0.2081378,-0.1315326,1.1502477625366632
1.116493,-0.3316627,-0.08412443,1.1677472694650648
1.022577,-0.4105144,-0.02149196,1.1021105651798289
0.8905237,-0.4755008,-0.008419921,1.009556519533194
0.8036782,-0.4061876,0.008534451,0.9005330934523569
0.644974,-0.3010664,0.04844948,0.7134281954038756
0.6409131,-0.2761337,-0.001148079,0.697868712662124
0.8476557,-0.1750956,-0.09302115,0.8705352314692223
0.9793382,-0.1225185,-0.1317215,0.9957231775868934
1.049599,-0.1085676,-0.1359661,1.0639228190615944
0.9957038,-0.02844773,-0.08086439,0.9993870022402057
0.8961339,-0.04128627,-0.009563905,0.897135436318604
0.9327402,-0.0737281,-0.004081428,0.9356584694642428
0.9594392,-0.08449083,-0.03477278,0.9637797596337336
0.9935993,-0.1092109,-0.06376955,1.0016152680278503
1.016692,-0.1024336,-0.09469446,1.0262174750157256
0.9857725,-0.1336563,-0.1208675,1.0021079686551695
1.02556,-0.171739,-0.1230399,1.0470942721231025
1.015567,-0.1847107,-0.09319191,1.0364261219560893
1.017697,-0.1879919,-0.05725851,1.036497310774143
1.170082,-0.1758404,-0.07862576,1.1858304023475439
1.300023,-0.1887466,-0.1374914,1.3208288930117027
1.318431,-0.2034393,-0.1735265,1.3452729450738758
1.223569,-0.243444,-0.2007478,1.2636003158047404
1.06655,-0.3188503,-0.1987527,1.13079487621203
0.8788675,-0.4041778,-0.2162714,0.99123210956216
0.8086218,-0.540562,-0.2951954,1.0164727322758835
0.972157,-0.6253866,-0.3074741,1.196134588697848
1.132671,-0.5959547,-0.2452208,1.3031649317894225
1.320138,-0.5391146,-0.1689883,1.4359547125567889
1.417178,-0.383608,-0.09193877,1.471054492116833
1.165922,-0.09442436,-0.05177395,1.1708845424481493
0.9932754,0.06590853,-0.02323789,0.9957308642919396
1.014139,-0.06408938,-0.03584748,1.0167941786675092
0.9557338,-0.2281618,-0.07754355,0.985645933176961
0.8713332,-0.251385,-0.05390904,0.9084724256910397
0.8172992,-0.2702026,0.000319437,0.8608063251436975
0.7758623,-0.2758653,0.08504311,0.8278262516155501
1.271727,-0.8677109,-0.2970533,1.567945289717948
1.019858,-0.5928324,-0.1726749,1.1922152556244907
0.6849628,-0.3039269,0.04650821,0.750805308668535
0.7858524,-0.2608946,-0.048724,0.8294600744284923
1.043222,-0.2285467,-0.09945799,1.0725845547739956
0.9759324,-0.2587338,-0.07931414,1.012757602507204
0.9699961,-0.387826,-0.1064012,1.0500584058292424
0.9682786,-0.4147078,-0.001074473,1.053350445526572
0.8698412,-0.4076615,-0.05914988,0.9624501649974945
0.8493141,-0.3224799,-0.1337214,0.9182641990085315
0.6996352,-0.2031718,-0.05358458,0.730506331668697
0.6757898,-0.1493565,-0.1131415,0.7012846903352019
0.8316838,-0.1006468,-0.1258194,0.8471471200146052
0.8798711,-0.09111585,-0.1207639,0.8927817035981654
0.9471703,-0.0635343,-0.1528119,0.9615194544366692
0.9294887,-0.0580923,-0.08068661,0.9347910396341377
0.9099436,-0.07144305,-0.08243689,0.9164591127852538
0.9611449,-0.03597007,-0.1068388,0.9677333795613619
0.919207,-0.07324783,-0.1225986,0.930235008033276
0.9823278,-0.1282064,-0.1362811,0.9999886628712397
1.106861,-0.2002086,-0.06360579,1.1266190364788287
1.212538,-0.2775949,-0.008311774,1.243935856681138
1.289641,-0.2066293,0.02075387,1.3062543012826664
1.290097,-0.09947782,-0.05864326,1.2952548544685638
1.360289,-0.06044143,-0.1989712,1.3760918822560086
1.270015,-0.1663679,-0.2114546,1.2982023826185844
0.9885358,-0.4535095,-0.2010923,1.1060343609450747
0.8651226,-0.6516121,-0.2022809,1.1017953550464714
0.9235995,-0.6484902,-0.2166559,1.1491367868539846
1.118236,-0.6546493,-0.2885778,1.3275144460002422
1.374305,-0.6519374,-0.3380641,1.558211777086982
1.548477,-0.4518627,-0.2930179,1.6394573519615263
1.422039,-0.1968387,-0.1781004,1.4466029668913478
1.123918,-0.01490256,-0.09949678,1.1284118779279675
1.023443,0.07121854,-0.038176,1.0266280054940697
0.8712368,-0.03969149,-0.0338154,0.8727957706874044
0.6581351,-0.1319364,-0.1000053,0.6786384041041739
0.6686759,-0.1464666,-0.07059577,0.6881596376555827
0.6762429,-0.229165,-0.03297626,0.7147786305906169
0.5974832,-0.2756407,0.02575555,0.6585038482306178
0.563807,-0.3088101,0.153538,0.660920516064534
0.5904539,-0.272212,0.1661586,0.6710766434045891
0.6021398,-0.1660428,0.1638072,0.6457362843667065
0.6478648,-0.1305194,0.1670379,0.6816639735909549
0.7793477,-0.09892362,0.1007118,0.7920300415694057
0.8482939,-0.1558479,0.0765527,0.8658818768105209
0.9560849,-0.223675,0.0750852,0.9847672968229855
1.171134,-0.1882505,0.1074928,1.191028042809274
1.428777,-0.1783022,0.148147,1.4474608540001488
1.588681,-0.1128222,0.1641301,1.601116753487968
1.439633,-0.0756665,0.2331197,1.4603470095971502
1.30373,-0.2075416,0.2597392,1.3454552689135377
1.314702,-0.4421414,0.1642359,1.3967475782140344
1.238315,-0.6215093,0.01152402,1.3855795366013641
1.101786,-0.5208623,-0.07008545,1.2207136829162653
0.903458,-0.3320082,-0.04749553,0.9637020431654282
0.8542819,-0.2473233,-0.05300242,0.890940871167305
1.045491,-0.1936291,-0.09933656,1.0679004689578724
1.124206,-0.2466982,-0.124232,1.1576410160940394
1.006924,-0.3443016,-0.08306998,1.067398779798703
0.8989343,-0.4482744,-0.01746723,1.0046581097745257
0.9230062,-0.5253611,-0.03513162,1.0626283270059549
0.8986164,-0.4251222,-0.0636343,0.9961373617219113
0.7381926,-0.3060044,-0.06778346,0.8019735687438156
0.6823728,-0.197153,-0.08960867,0.7159131632593502
0.7267891,-0.06600117,-0.09488861,0.7359228211082403
0.8125558,-0.07322245,-0.1215515,0.8248534551360578
0.9191753,-0.06871657,-0.1530863,0.9343664240384203
0.8983348,-0.05065009,-0.123729,0.9082288863216409
0.8482674,-0.1116563,-0.07767764,0.8591033273061044
0.8608004,-0.1108014,-0.0546704,0.8696224074380099
0.8853937,-0.1439372,-0.07758007,0.9003658083272237
0.9723902,-0.2080317,-0.1301951,1.0028811760746834
1.087881,-0.2407085,-0.1484736,1.1240418417613334
1.144762,-0.2810602,-0.1278928,1.1856776294422866
1.155512,-0.2007987,-0.05926419,1.174325484813323
1.172935,-0.0923044,0.02292722,1.1767847185875964
1.216792,-0.07591725,-0.01039433,1.2192022974911554
1.274043,-0.09919794,-0.1430811,1.2858841309878795
1.278455,-0.2037538,-0.2276694,1.3144566001720253
1.132483,-0.3689511,-0.2058811,1.2087306096965609
0.9409052,-0.5481137,-0.1584662,1.100383006074326
0.9234327,-0.665895,-0.1836372,1.153198475405743
1.106813,-0.6286532,-0.2392212,1.2951705082222496
1.428695,-0.5410226,-0.277489,1.552699263172608
1.650505,-0.4791423,-0.270042,1.7397318127913537
1.381614,-0.3067352,-0.1664874,1.4250129060025385
0.9308928,-0.08285392,-0.0462279,0.9357153391334442
0.8149614,-0.06262874,0.01607356,0.8175223555934242
0.7226409,-0.1341416,-0.02184775,0.7353102497472972
0.6169294,-0.1459905,-0.07700865,0.63862778114441
0.7007032,-0.2245852,-4.941339e-06,0.7358148453066823
0.6607892,-0.2941665,0.05678601,0.7255349388489917
0.6164365,-0.2654658,0.08010155,0.6759306974936798
0.6551102,-0.234632,0.1687066,0.7160191802260607
0.6079888,-0.1838871,0.1947913,0.6643858043543224
0.6837563,-0.1077289,0.1713051,0.7130733699773888
0.7987597,-0.07750673,0.1237228,0.8119924154690257
0.8479842,-0.09675818,0.09641428,0.8589150494865431
0.8994023,-0.1590042,0.1327678,0.9229486018082319
0.9730533,-0.2267865,0.1458719,1.0097244438126425
1.238653,-0.2275554,0.1725258,1.2711443136575014
1.513408,-0.1729412,0.1784962,1.533679668814802
1.55981,-0.1073733,0.1737037,1.5731208590081627
1.452402,-0.1096367,0.2163422,1.4725134033657317
1.355686,-0.3235284,0.1745655,1.4046452470260276
1.370437,-0.6398228,0.02954956,1.5127273260125347
1.21909,-0.6800919,-0.1062486,1.3999979234083062
0.851508,-0.4451468,-0.07221671,0.9635542542158506
0.6799203,-0.3005555,0.01049378,0.7434617289081049
0.9182232,-0.2559294,-0.08780401,0.957258192430172
1.249436,-0.1652013,-0.1618314,1.2706577783351622
1.23143,-0.169721,-0.1786289,1.2558396978341664
1.067517,-0.3113301,-0.1593685,1.1233509225737344
0.9354715,-0.4482222,-0.01320996,1.037393161211453
0.7835933,-0.5231353,0.005820936,0.9421904718298186
0.8014199,-0.4526751,-0.04942632,0.9217546112630858
0.77743,-0.2855828,-0.0346647,0.8289490828645206
0.6797841,-0.2072187,-0.07238425,0.7143426991931551
0.7694297,-0.1361326,-0.08284169,0.7857588011768663
0.8624346,-0.060543,-0.1037419,0.87075902288852
0.9427926,-0.05143043,-0.1342218,0.9536867763264755
0.9749257,-0.01019451,-0.08735349,0.9788844062348783
0.8780623,-0.02113243,-0.0657913,0.8807772007918261
0.8700131,-0.06214924,-0.05434843,0.873921663564677
0.8993843,-0.08372959,-0.07478927,0.9063642745801442
0.9483552,-0.2008877,-0.1326487,0.9784319756580014
1.07844,-0.2798374,-0.161308,1.1257717685671285
1.128987,-0.2867148,-0.1791767,1.1785250580835904
1.139051,-0.2545591,-0.1141716,1.1727202011734812
1.181006,-0.1563181,0.0008512202,1.1913065285640967
1.224591,-0.1158084,0.03763363,1.230630323410949
1.274656,-0.1208736,-0.05385013,1.2815062161433228
1.277033,-0.1541997,-0.1966202,1.3012495278066887
1.18394,-0.246683,-0.2165532,1.228601527965532
0.9963026,-0.4081276,-0.1844834,1.092346617848053
0.8899173,-0.6082893,-0.2145248,1.0990857851636606
1.043133,-0.6575597,-0.2715803,1.2626428925476831
1.294905,-0.620042,-0.321761,1.471312741027549
1.439362,-0.6183066,-0.260738,1.5880964464702891
1.407555,-0.4973247,-0.1305843,1.498531012245519
1.175484,-0.2609543,-0.06949696,1.2061051398587652
0.9214359,-0.07380513,-0.05401306,0.9259636740572982
0.8400271,-0.04454343,-0.06984715,0.8441020496679873
0.7895079,-0.1231192,-0.08117817,0.8031630948042863
0.6756462,-0.1631154,-0.03499421,0.6959375087068695
0.6583909,-0.1915031,0.01963959,0.685957526387595
0.6616377,-0.2391152,0.07726303,0.7077500270131474
0.6154158,-0.2379325,0.1483472,0.6762805432612489
0.6739195,-0.2020212,0.1880916,0.7282571714169727
0.7394211,-0.1578444,0.181165,0.7774825882047586
0.7598793,-0.1196375,0.1613146,0.7859720619385272
0.823075,-0.1308093,0.1570232,0.8480682837659536
0.8601579,-0.1996047,0.1364235,0.893490358396077
0.953581,-0.2535046,0.1196402,0.9939291137894091
1.19151,-0.2007568,0.1408867,1.2164902116676197
1.491275,-0.1144534,0.1535111,1.5035179959746974
1.636612,-0.08681182,0.1858761,1.6494196116170445
1.483766,-0.08436884,0.2513151,1.5072620619543753
1.36306,-0.2582268,0.2446175,1.4087055636805337
1.32994,-0.6143223,0.05251233,1.4659092184304316
1.083145,-0.709499,-0.1662546,1.3054625670800215
0.8032836,-0.4761301,-0.07856599,0.9370896589652722
0.7461462,-0.2816859,0.0319889,0.7981881906896768
0.9702225,-0.2098322,-0.1185759,0.9997107060164455
1.198651,-0.1805137,-0.1327735,1.2194171632345263
1.028424,-0.2070406,-0.03674385,1.0497008356370792
0.8403219,-0.3093108,-0.04342744,0.8964931729585025
0.905016,-0.4031709,-0.03119074,0.9912485042231124
0.8675959,-0.3882186,-0.06818636,0.9529353109066845
0.8195004,-0.3493834,-0.08783065,0.8951893033739526
0.8349415,-0.3181032,-0.0555769,0.8952126820404747
0.7887668,-0.170014,-0.07877314,0.8107176034623275
0.8640344,-0.01059934,-0.08553847,0.8683228778753537
0.9500007,-0.007803735,-0.1068738,0.9560252284364049
0.8980728,-0.01521796,-0.08345535,0.9020704716650602
0.8798926,0.036644,-0.02265023,0.8809465382131954
0.8928677,0.01778391,-0.04858735,0.8943655448071558
0.904897,-0.03274299,-0.05392135,0.9070932675248795
0.9587063,-0.07896462,-0.08007471,0.9652798247415195
1.01731,-0.1472214,-0.1498736,1.0387761417624684
1.054216,-0.1941827,-0.1652356,1.084611035875373
1.085448,-0.2479136,-0.1581069,1.1245693867416853
1.092078,-0.2685082,-0.08972711,1.128176389497756
1.075352,-0.1871853,0.002555427,1.0915249839775736
1.125873,-0.126088,-0.01065423,1.132961477054667
1.216446,-0.1571272,-0.1111119,1.2315744728669273
1.245339,-0.2458325,-0.1941088,1.2841265783460327
1.160184,-0.3797425,-0.2099102,1.238666045480496
1.005238,-0.5110984,-0.2087818,1.146871767521461
0.9999935,-0.6093894,-0.2620277,1.2000003985173922
1.195701,-0.643862,-0.3424841,1.400555073960967
1.429742,-0.6149622,-0.3230805,1.58956651432807
1.490214,-0.5699258,-0.2009012,1.6080778822753206
1.262414,-0.4125979,-0.08058513,1.3305713425658643
1.012156,-0.1790973,-0.04139448,1.0287123573563994
0.9261775,-0.1097795,-0.08876209,0.9368751297519152
0.8943861,-0.1604178,-0.09812229,0.9139411087290549
0.8352049,-0.1842073,-0.07029115,0.8581610572180624
0.707021,-0.2115371,-0.007448033,0.7380258208985504
0.6262832,-0.2257405,0.1169952,0.675926990706489
0.6467017,-0.1936681,0.1326175,0.6879809757883935
0.6388579,-0.1551049,0.1285209,0.669861603716193
0.650116,-0.1070423,0.1824072,0.6836528754105625
0.7204706,-0.04981808,0.1415634,0.7359347272542629
0.758553,-0.05279495,0.1361025,0.7724725568334143
0.8001713,-0.09285526,0.1432624,0.8181811070338385
0.8630629,-0.120247,0.0887063,0.8759028016995378
0.9148956,-0.1844323,0.1301182,0.9423268955908507
1.101626,-0.2275183,0.1742619,1.138293297222864
1.365181,-0.1851334,0.1937182,1.3912297723840588
1.442772,-0.1235396,0.2275803,1.4658260025324459
1.460422,-0.09202106,0.2460964,1.4838678282315052
1.529003,-0.1955635,0.2948766,1.5694099100518033
1.512957,-0.4621879,0.1743684,1.5915592598687522
1.406845,-0.6295743,-0.008879966,1.5413161606372818
1.107305,-0.508139,0.04595445,1.2191970381446973
0.704421,-0.2730458,0.07048982,0.7587699050847183
0.6793605,-0.112382,-0.03382398,0.6894232839898072
0.9701091,-0.05031905,-0.125465,0.9794820768756887
1.107447,-0.1218725,-0.2111825,1.1339708163667617
1.069627,-0.242936,-0.1600196,1.1084791796011146
0.9743576,-0.3634471,-0.0498859,1.041131658434696
0.848348,-0.486391,-0.03059009,0.9783691979979787
0.7565816,-0.4458083,0.01128576,0.8782301100430498
0.7030141,-0.3544026,0.01646377,0.7874649728135105
0.7120566,-0.312162,-0.04256221,0.778640647261395
0.7845741,-0.2013974,-0.0652614,0.8126355157433928
0.897828,-0.1394746,-0.1239171,0.9170080312088711
0.9759034,-0.05306138,-0.1524477,0.9891629074193766
0.9196091,0.04742635,-0.09047954,0.9252657470347337
0.8886001,2.832018e-05,-0.05557041,0.8903360090379422
0.9364875,-0.01686456,-0.04306396,0.9376287941883639
0.9408491,-0.0550972,-0.04031283,0.9433227733290758
0.9578188,-0.1412536,-0.04297653,0.9691317842673621
0.983771,-0.136235,-0.0590621,0.9949139095029328
1.011775,-0.1329793,-0.1082255,1.0261992514632527
1.087185,-0.1109323,-0.1050234,1.0978647976667484
1.163,-0.1018767,-0.0530355,1.1686576172100793
1.255199,-0.1571232,-0.01271813,1.2650588841670323
1.339177,-0.1808123,-0.03242157,1.3517171610072705
1.334653,-0.156617,-0.1189601,1.3490659807770746
1.226094,-0.1363095,-0.1705689,1.2453836863687673
1.019337,-0.2707433,-0.1703027,1.0683411738256556
0.8980226,-0.5113937,-0.178313,1.0486961583220613
1.034139,-0.6616844,-0.2469841,1.2523062174153612
1.276638,-0.7257223,-0.3238837,1.5037879141976702
1.437447,-0.7091183,-0.2962226,1.6299848066637461
1.414031,-0.5680109,-0.1937113,1.5361133158811886
1.207642,-0.2942587,-0.06894435,1.2448858205018696
0.9987912,-0.05282623,-0.01818643,1.0003525468601546
0.8587012,0.02068476,-0.06761276,0.8616072745123008
0.7833494,0.02757181,-0.07038736,0.7869884799886245
0.7642307,-0.04767004,-0.04819659,0.7672313254968932
0.7175953,-0.1789436,-0.02736638,0.7400761753477505
0.6854363,-0.2451291,0.05603291,0.7301033379101673
0.6721125,-0.2732637,0.1084929,0.7336068236762455
0.6449038,-0.2767877,0.1237016,0.712610993437717
0.6558856,-0.2802573,0.1707605,0.7334093146742139
0.6949422,-0.2473485,0.1591928,0.7546312273984757
0.7703613,-0.139604,0.1034229,0.7897101402401391
0.7989667,-0.08729391,0.1170812,0.8122044212052888
0.8048849,-0.1130446,0.1495303,0.8264248873643992
0.9777701,-0.1614179,0.1621565,1.004183667157891
1.236254,-0.1950621,0.1607139,1.2618249217009545
1.447135,-0.1170331,0.1373727,1.4583441683724387
1.486636,0.03007839,0.1750448,1.4972080643811776
