accx,accy,accz,Total_Acceleration
1.018851,-0.123976,0.09792958,1.0310274542493891
1.02238,-0.1268078,0.09935086,1.0349935632280907
1.020781,-0.1277862,0.09811381,1.0334164129643753
1.020218,-0.1266547,0.09751712,1.0326644030125105
1.021344,-0.1236336,0.0974719,1.0334067953495225
1.020522,-0.1249187,0.09657678,1.0326649546338145
1.01979,-0.1243005,0.09774064,1.031976497362154
1.019216,-0.1197982,0.09730921,1.03083555707497
1.018307,-0.1192223,0.09815882,1.029950609014861
1.017996,-0.120174,0.1011657,1.0300447296833715
1.017932,-0.1213162,0.1016211,1.0301601938396039
1.018121,-0.1222915,0.1015734,1.0304575377961045
1.018305,-0.1264941,0.1011669,1.0311064794750442
1.018458,-0.132631,0.1013595,1.0320472024889416
1.018201,-0.1286242,0.1011384,1.031264484592192
1.017129,-0.122015,0.09923839,1.029216848344309
1.017814,-0.1218544,0.1005806,1.0300049953722166
1.0188,-0.1212108,0.1025034,1.031092840169206
1.017601,-0.120603,0.1001684,1.0296070061769005
1.01797,-0.1209479,0.09859667,1.029860485089849
1.018489,-0.1212181,0.1007798,1.030616436399425
1.017787,-0.1236811,0.1003598,1.0301744907161359
1.019167,-0.1255531,0.09920002,1.0316518786764313
1.019789,-0.1241987,0.1017142,1.032347180014713
1.019462,-0.1221575,0.101472,1.0317566530118671
1.020433,-0.1233974,0.1012259,1.032839343095803
1.021189,-0.127263,0.1026532,1.0341955928934525
1.021903,-0.1302381,0.1016078,1.0351675464007988
1.021936,-0.1312862,0.1006335,1.0352373427039279
1.02055,-0.1299998,0.09614245,1.0332790625925035
1.018878,-0.1277708,0.09032558,1.0308231985258074
1.018548,-0.1239092,0.0899055,1.0299886004606507
1.017389,-0.1197379,0.0931167,1.0286341729868302
1.015021,-0.121468,0.09574084,1.0267367792715452
1.01931,-0.1260118,0.09424991,1.0313849404437938
1.024606,-0.1282198,0.09448054,1.0369109628057422
1.021863,-0.1263671,0.09775536,1.0342769189826
1.020201,-0.1217475,0.09900205,1.0321985952622936
1.020573,-0.1218799,0.09852306,1.0325360776770822
1.018729,-0.1239658,0.09542946,1.0306711778479747
1.01936,-0.1242567,0.0942117,1.0312179117489086
1.019954,-0.1261499,0.09773522,1.0323624037199624
1.018969,-0.1276499,0.1021875,1.0320051381108817
1.019633,-0.1295878,0.1034573,1.0330284921148738
1.019553,-0.1303476,0.09961019,1.0326669388464975
1.019179,-0.1299795,0.09758879,1.0320581749082336
1.019695,-0.1321647,0.09861568,1.0329426185867987
1.019145,-0.12887,0.09788232,1.0319132504690414
1.018516,-0.124246,0.09687653,1.0306294061576355
1.017926,-0.1267462,0.09700962,1.0303634344555248
1.01778,-0.1270445,0.09758221,1.0303100121268034
1.018917,-0.1256371,0.09707332,1.0312127633234727
1.020606,-0.12678,0.09742485,1.033054392098268
1.022583,-0.1258547,0.0993411,1.035076833645841
1.020981,-0.1234932,0.1000578,1.033278440764192
1.018065,-0.1219945,0.09856404,1.0300746925521331
1.019638,-0.1239103,0.09317716,1.0313570655382915
1.020017,-0.1279703,0.08874205,1.0318363384807168
1.018766,-0.1282954,0.09050464,1.0307933654611334
1.019815,-0.1270103,0.09484291,1.032060767643242
1.01929,-0.1261848,0.09835045,1.0317691209113804
1.018445,-0.1240696,0.1003852,1.0308737420500147
1.019372,-0.1227451,0.09987355,1.0315814848801874
1.021171,-0.121326,0.09498741,1.0327307575430822
1.023127,-0.1200157,0.09111667,1.0341638525530557
1.021882,-0.1214994,0.0926756,1.0332442561948845
1.019178,-0.1228407,0.09606378,1.0310392248059133
1.015861,-0.1237173,0.09989713,1.0282309945836718
1.012893,-0.1238168,0.0976265,1.0250920753344501
1.016451,-0.1213038,0.08829054,1.0274640951142437
1.020331,-0.1212583,0.08224058,1.030796991593702
1.020266,-0.125411,0.08109954,1.0311390619432528
1.021759,-0.1294583,0.08129546,1.0331310939742846
1.018649,-0.1298562,0.08192691,1.030155539936367
1.013117,-0.1277827,0.08754584,1.0248896273304728
1.016167,-0.1256833,0.09374196,1.0281922090993163
1.018977,-0.121083,0.09105401,1.0301776798955995
1.016653,-0.1178711,0.08817375,1.027254364222062
1.017782,-0.1181788,0.08861402,1.0284448807952715
1.020528,-0.1174953,0.09200702,1.031381518176165
1.021877,-0.1174196,0.09805868,1.0332644725899087
1.022096,-0.1165236,0.09542812,1.0331333450526579
1.020731,-0.116636,0.09248751,1.0315278330529916
1.020761,-0.1209724,0.0956355,1.0323436877043468
1.020405,-0.1256922,0.09434238,1.0324366217012568
1.020213,-0.129232,0.09421302,1.0326720526529807
1.021675,-0.126144,0.09695504,1.0339885851122352
1.019989,-0.1194885,0.09729701,1.0315627804007812
1.017997,-0.1173506,0.09752661,1.0293689790291198
1.017391,-0.1177075,0.09736884,1.0287955061333596
1.017994,-0.1205666,0.09889255,1.0298678679894149
1.021661,-0.1216256,0.1005364,1.0337753881870664
1.022348,-0.120834,0.09808253,1.0341259455942495
1.020336,-0.1215108,0.0973082,1.0321430681838055
1.019066,-0.1205366,0.1017617,1.031203194274751
1.018882,-0.1226586,0.1057878,1.0316766551138008
1.020013,-0.1250758,0.1045294,1.0329554062877062
1.018262,-0.12342,0.1014726,1.0307214393786324
1.017474,-0.1199092,0.09628423,1.0290297419741243
1.018954,-0.1130717,0.08711603,1.0289031373943083
1.019628,-0.1126833,0.08820557,1.0296208074149993
1.022794,-0.1187733,0.09679566,1.0342069730105892
1.024238,-0.1236332,0.09681245,1.0362052399313768
1.022783,-0.1286601,0.09896355,1.0355830583056158
1.020487,-0.1216789,0.1045728,1.0330222371149858
1.018146,-0.1085598,0.1034254,1.0291274560797607
1.019779,-0.1088185,0.1007337,1.030503737547293
1.019922,-0.1119293,0.097965,1.0307114996484175
1.018709,-0.1133349,0.09971603,1.0298330509737834
1.01998,-0.1183985,0.1044111,1.0321235793282992
1.019301,-0.1204352,0.1033368,1.031580176348053
1.019243,-0.1191445,0.1036703,1.031406435907465
1.020169,-0.1172693,0.1030473,1.0320443901890946
1.020892,-0.1156951,0.09924684,1.0322091682784045
1.022771,-0.1140429,0.1006844,1.0340230412736315
1.021553,-0.1116856,0.1009733,1.0325888883622802
1.019811,-0.1127778,0.09797125,1.0306947529314403
1.020246,-0.1157433,0.09568395,1.0312389782676432
1.019291,-0.1176716,0.09453667,1.0304066818990687
1.019258,-0.1198846,0.09875904,1.0310249928410473
1.020736,-0.1220551,0.1019772,1.0330531343797618
1.02095,-0.1229782,0.09536033,1.0327420455820266
1.020491,-0.1229688,0.0894662,1.031759374949838
1.018685,-0.1273395,0.09512551,1.0310108341516155
1.01566,-0.1323291,0.09949626,1.0290654653911955
1.014788,-0.1290268,0.0935352,1.0272251134494716
1.016499,-0.1264244,0.08903516,1.0281928834769214
1.017849,-0.1305193,0.09061235,1.0301759424709998
1.017682,-0.1334039,0.0951518,1.0307895608233768
1.018149,-0.1343639,0.09541539,1.0313996027113168
1.019854,-0.1352028,0.08827355,1.032557116131327
1.01988,-0.134048,0.08632477,1.0322674297969265
1.019121,-0.130632,0.08841135,1.0312559812548108
1.020479,-0.1237461,0.08892948,1.0317940390985403
1.020595,-0.1187719,0.09169096,1.0315658730300898
1.01634,-0.1228884,0.09336454,1.0279909979099875
1.010611,-0.1271927,0.09647738,1.023142444191401
1.009013,-0.1263233,0.09873661,1.0216720258704268
1.015016,-0.1272799,0.09565399,1.0274275346723631
1.024026,-0.1282842,0.09367285,1.0362724967269772
1.027664,-0.1268202,0.09123625,1.039471362442517
1.022425,-0.1237509,0.09207211,1.0339944097119973
1.015007,-0.1184518,0.09727551,1.0265147655138722
1.014774,-0.1167494,0.09721817,1.0260838494267945
1.017851,-0.1195661,0.09511668,1.0292540470090135
1.019387,-0.122615,0.09318756,1.0309550016042182
1.021093,-0.127409,0.09117061,1.0330421327602142
1.022092,-0.1329988,0.08834874,1.034488393905426
1.024232,-0.1371418,0.08291186,1.0366935128859927
1.025311,-0.1370559,0.08417797,1.0378501322826583
1.022033,-0.1326478,0.08893409,1.034435190960733
1.020125,-0.1313045,0.09058986,1.0325223533076993
1.02158,-0.1313929,0.09359861,1.0342390876215914
1.022957,-0.1304528,0.08988711,1.035151510369855
1.022148,-0.1311713,0.08314939,1.0338792312959295
1.021799,-0.129933,0.08544598,1.0335650905425162
1.022725,-0.12945,0.08920975,1.0347376999124285
1.02178,-0.1298041,0.09270112,1.0341551964894167
1.020903,-0.1291798,0.09538713,1.0334549146947227
1.019081,-0.1314214,0.09300598,1.031720786479908
1.017221,-0.1307161,0.08966654,1.0294976202186101
1.019547,-0.1297491,0.0850963,1.0312867178595388
1.02177,-0.1314277,0.08486652,1.033677657417534
1.022134,-0.1300428,0.09020624,1.0343143668743937
1.020713,-0.12967,0.09193836,1.033015972436288
1.018487,-0.1264872,0.09482185,1.0306822809043834
1.020331,-0.1216853,0.09602326,1.0320383366222972
1.024399,-0.1237275,0.09321579,1.0360458430796264
1.026768,-0.1256856,0.09616013,1.03889179728833
1.023704,-0.1266484,0.09626289,1.0359904636770128
1.016694,-0.1295852,0.0936784,1.0291912632361393
1.014855,-0.1305618,0.09637986,1.027748087839554
1.017545,-0.1307506,0.09372395,1.0301833454434033
1.022063,-0.132542,0.08767998,1.0343442060676902
1.026897,-0.1333249,0.08567856,1.0390542782803425
1.025257,-0.1305165,0.08656764,1.0371501478168048
1.022442,-0.1272591,0.09069055,1.0343148929393373
1.022451,-0.1272733,0.09289061,1.0345207613770069
1.020104,-0.1283251,0.0938754,1.0324205019424837
1.02014,-0.1283409,0.09409445,1.0324779763915608
1.020892,-0.1312988,0.08774074,1.0330335367262709
1.018699,-0.1355125,0.08286672,1.031008333400273
1.020304,-0.1344378,0.08534326,1.0326554345532044
1.021516,-0.1330899,0.08715508,1.0338297092402677
1.019417,-0.1343694,0.08454642,1.031704537491319
1.019312,-0.1330156,0.08216647,1.0312329668797544
1.019448,-0.1309374,0.08197219,1.0310859650660347
1.019434,-0.1304731,0.08141334,1.0309689821277679
1.019916,-0.1303047,0.08193577,1.0314656718978015
1.021041,-0.1308757,0.08301135,1.0327361990171122
1.022935,-0.1312099,0.08233391,1.0345969866662565
1.022019,-0.1301826,0.08148748,1.033494342074745
1.019952,-0.1287306,0.0808414,1.0312172329990998
1.019616,-0.1278461,0.07912684,1.0306417755697639
1.020933,-0.12823,0.07829138,1.0319286136023678
1.023061,-0.1298541,0.08406305,1.0346895637741362
1.022242,-0.1327524,0.08944957,1.0346995369878857
1.020867,-0.1339906,0.08930405,1.0334883288764138
1.021939,-0.1311592,0.09046032,1.0342848374408968
1.0223,-0.1299701,0.08898517,1.0343635131683342
1.022302,-0.1318892,0.08799444,1.0345236400158064
1.022254,-0.1332979,0.08816496,1.0346712670371259
1.021854,-0.1345662,0.08428234,1.0341166144755223
1.02155,-0.1345454,0.08217843,1.0336441174400524
1.020452,-0.1327403,0.07869633,1.0320539636586639
1.020845,-0.1305122,0.08222699,1.0324336425447884
1.022117,-0.1299787,0.09207467,1.03445414059701
1.02201,-0.1310084,0.09071004,1.0343577487152893
1.021345,-0.1304504,0.08943905,1.0335193561564595
1.019568,-0.1309109,0.08990725,1.0318623377008063
1.018964,-0.1335309,0.08475873,1.0311654459212753
1.019953,-0.134933,0.08210002,1.0321101927517238
1.020229,-0.1333701,0.08282999,1.0322381523943058
1.021055,-0.1308107,0.0833716,1.0327708245036988
1.021071,-0.1317208,0.08116628,1.0327266439879812
1.020661,-0.1317594,0.08155611,1.032356922526164
1.021936,-0.1295996,0.08296459,1.0334565146197627
1.022134,-0.1307231,0.08172553,1.0336950735508954
1.020409,-0.1309249,0.08590207,1.0323541167406147
1.018856,-0.130051,0.0888332,1.0309569092640294
1.019397,-0.1323367,0.08674576,1.031604610620691
1.020827,-0.1376059,0.08469208,1.0335356288287967
1.020824,-0.1435455,0.08264005,1.034174224881984
1.020529,-0.1415072,0.08415007,1.0337238324493854
1.019106,-0.1359702,0.085247,1.03166466719232
1.017155,-0.1356582,0.0835779,1.0295594721144814
1.01749,-0.1323452,0.08392508,1.029487528392669
1.018337,-0.1286947,0.08773506,1.0301796018803195
1.018905,-0.129707,0.09207862,1.0312467101208636
1.018994,-0.1296935,0.09097123,1.0312346680877067
1.01826,-0.1313971,0.08822138,1.0304861170231816
1.018166,-0.1338985,0.08713036,1.0306223903505976
1.018076,-0.1356536,0.08494207,1.0305803201230097
1.019054,-0.1372654,0.08294387,1.0315970776052716
1.020879,-0.1353187,0.07941934,1.0328661649878583
1.020772,-0.1344627,0.07688773,1.032456980556499
1.019931,-0.1325045,0.08010541,1.0316169657351113
1.019357,-0.1288813,0.08462501,1.0309512477591705
1.020142,-0.1308347,0.08718603,1.0321864282750723
1.021285,-0.1311539,0.08799834,1.0334254228307749
1.01964,-0.1297853,0.08708227,1.0315489689997481
1.018241,-0.1308924,0.08552785,1.0301759886467858
1.018862,-0.1293406,0.08522969,1.0305691951100886
1.019617,-0.1280308,0.08895445,1.0314667258871915
1.019715,-0.1283974,0.09317888,1.0319820140049991
1.019507,-0.1283714,0.09121262,1.0315975384975598
1.021295,-0.1278936,0.08811196,1.033036285636183
1.022934,-0.1276289,0.08732186,1.034557012302884
1.022183,-0.1298882,0.08373844,1.0337993791456221
1.021637,-0.1308192,0.0827008,1.0332933974328298
1.020598,-0.1284513,0.08449026,1.0321136653055987
1.018887,-0.126481,0.08278491,1.0300395640234934
1.019161,-0.1275068,0.08408426,1.0305422314233355
1.019916,-0.1319863,0.08576054,1.031990261904046
1.019602,-0.1345073,0.08327454,1.0318018710825743
1.020735,-0.1333157,0.08140418,1.0326178657242777
1.021278,-0.1327355,0.07878516,1.0328768405189823
1.018878,-0.1326756,0.08098401,1.0306665821666288
1.019219,-0.131761,0.08581952,1.0312775189516303
1.021986,-0.1319502,0.08452033,1.033929362025931
1.022246,-0.134115,0.08541258,1.0345380740036862
1.02124,-0.1344598,0.08738365,1.0337535865492136
1.019609,-0.1311532,0.08693078,1.0316785522936145
1.018947,-0.1281725,0.08858837,1.0307905111439992
1.019762,-0.1295836,0.08909786,1.0318162989067092
1.019384,-0.1317978,0.09038661,1.0318353254314043
1.019324,-0.1301619,0.09029783,1.031560582462474
1.019633,-0.1301412,0.08450735,1.0313727157679045
1.019283,-0.1316379,0.08087192,1.0309251370734425
1.019523,-0.1317867,0.08160151,1.0312389093998393
1.020173,-0.1342005,0.08420486,1.032401657581423
1.022936,-0.1346883,0.08477148,1.0352416153122326
1.026194,-0.1341317,0.08319102,1.038261134970163
1.025169,-0.1347348,0.08445544,1.0374283908962747
1.022234,-0.1306302,0.08451391,1.034006383390126
1.01841,-0.1270172,0.08492865,1.0298083184683753
1.013645,-0.1273701,0.08635853,1.0252595398740607
1.014617,-0.1273091,0.08418038,1.026031968317145
1.017864,-0.1274314,0.08511177,1.0293346868703557
1.017225,-0.1296548,0.08642056,1.029089685585641
1.019428,-0.1326851,0.08410816,1.0314615676430197
1.022263,-0.1330224,0.08310888,1.034226129048002
1.021587,-0.132084,0.08016301,1.0332048634212192
1.020767,-0.128511,0.07662198,1.0316740150014057
1.017805,-0.1229166,0.07827945,1.0281844099541981
1.017798,-0.1249864,0.08425404,1.028898980583265
1.021836,-0.1295362,0.08564798,1.0335685823807341
1.023378,-0.1303909,0.08148957,1.0348646615406263
1.024073,-0.1305909,0.08467484,1.035832670377236
1.022197,-0.1260802,0.08821116,1.0337137574733082
1.020102,-0.1231668,0.08647065,1.0311427274328528
1.021246,-0.1262211,0.08750284,1.0327303160115304
1.022246,-0.1268935,0.08295305,1.0334263657186962
1.022881,-0.1277444,0.07912545,1.0338592789785572
1.021635,-0.1289315,0.08473824,1.0332192285452046
1.020924,-0.1284659,0.08717847,1.0326613127595856
1.019791,-0.1295346,0.08536979,1.0315235805946483
1.01609,-0.1277364,0.08491139,1.0276017809135463
1.016643,-0.1266287,0.09015359,1.0284578197002432
1.018899,-0.1288373,0.09338777,1.0312494837127741
1.020067,-0.1274818,0.08302154,1.0313490533879457
1.021257,-0.1284242,0.07459499,1.031999538627678
1.020614,-0.1338588,0.07991183,1.0324519436309803
1.019587,-0.1368123,0.08517682,1.032245293845219
1.017337,-0.1344476,0.08289455,1.0295252474487755
1.016364,-0.1276174,0.08407489,1.0277891653482596
1.018771,-0.1240074,0.08564776,1.0298581089105323
1.020942,-0.1232476,0.08209955,1.0316263249742914
1.021323,-0.122098,0.08619578,1.032200709369456
1.020792,-0.1226953,0.08971486,1.0320461230056095
1.022687,-0.1218514,0.08802763,1.033675639305859
1.02367,-0.1220874,0.09031209,1.0348728790237611
1.019899,-0.1233369,0.08871301,1.0311527332291128
1.017381,-0.124236,0.08695664,1.0286205034399662
1.020389,-0.1276007,0.08652167,1.0319697909052759
1.023884,-0.1267521,0.08163972,1.0349249171761634
1.021753,-0.1248237,0.07965219,1.0324265690413463
1.019425,-0.1245585,0.08132876,1.030221586723161
1.018896,-0.1214556,0.08539719,1.02965683683801
1.016787,-0.123494,0.08881566,1.0281025206010517
1.016458,-0.1260839,0.08734129,1.0279652311931928
1.016084,-0.1216043,0.08477703,1.0268405161708953
1.018847,-0.1188487,0.08260607,1.0290762778830027
1.023973,-0.1193653,0.08173948,1.0341422156375595
1.019743,-0.1197754,0.08398118,1.0301819116487887
1.016427,-0.1212244,0.08740009,1.0273548448400718
1.021919,-0.1254559,0.0881028,1.0333536320029315
1.025077,-0.1293792,0.08714885,1.0368783705806397
1.025249,-0.128045,0.0868901,1.0368610917109438
1.024711,-0.1262703,0.08377249,1.0358545516933784
1.022941,-0.1262819,0.08005285,1.0338103629494788
1.021915,-0.125463,0.07997915,1.0326896416778482
1.021757,-0.1278541,0.07905167,1.0327551522338676
1.021835,-0.1292022,0.07723353,1.032862524185141
1.021238,-0.1262278,0.08217728,1.032285626890658
1.020903,-0.1261381,0.09058179,1.0326465108449328
1.019398,-0.1248183,0.09380889,1.0312865742663007
1.0169,-0.1224034,0.09314177,1.0284666215538025
1.018283,-0.1244925,0.08993386,1.0297993735770816
1.019588,-0.1250943,0.08793666,1.0309903635866076
1.01885,-0.1249237,0.08813772,1.030257012113234
1.018999,-0.1239843,0.08795653,1.03027540969254
1.017655,-0.1209807,0.09043269,1.0288032368816333
1.017879,-0.1207328,0.09057128,1.0290078835449603
1.019592,-0.1211662,0.09116625,1.0308056944087487
1.019244,-0.123753,0.09240398,1.0308790579233047
1.019651,-0.1270086,0.08586243,1.0311118771309276
1.019465,-0.1264638,0.08320327,1.0306428882373047
1.019173,-0.1264944,0.08329193,1.0303649755127962
1.019809,-0.1272418,0.08107823,1.030909574855221
1.019181,-0.1277077,0.08268112,1.03047335482522
1.019495,-0.1262277,0.0835521,1.0306718394749612
1.019778,-0.1243435,0.08525853,1.0308624991792121
1.020253,-0.127305,0.08611201,1.0317645202759398
1.022243,-0.1304138,0.08824243,1.0342993941464653
1.022296,-0.1304232,0.09293447,1.0347638080395067
1.021207,-0.127181,0.08740894,1.032801561967217
1.020592,-0.1217094,0.08250078,1.0311292776431906
1.020688,-0.1200573,0.08716869,1.031414625232552
1.021118,-0.1227065,0.09013824,1.0324067790248896
1.020648,-0.1242503,0.09086485,1.0321903399662353
1.020834,-0.1215108,0.09084389,1.0320462888954993
1.020796,-0.118966,0.08779013,1.0314477639208963
1.019934,-0.1199858,0.08679176,1.0306283356096597
1.020202,-0.122183,0.09207658,1.0316098598198336
1.021135,-0.1243844,0.09525821,1.0330838754722504
1.021995,-0.1239865,0.09411021,1.0337810038076216
1.022282,-0.122905,0.09242473,1.0337835640329036
1.02229,-0.124012,0.08634736,1.0333981260012859
1.022236,-0.1236643,0.08175773,1.0329296322621608
1.022095,-0.1231035,0.08471664,1.032961552929314
1.022009,-0.1230613,0.08768471,1.0331191063989058
1.02038,-0.1219493,0.08610855,1.0312427738188483
1.018655,-0.12298,0.08618254,1.029664760796373
1.018125,-0.1239044,0.08887408,1.0294801688523225
1.016268,-0.1216302,0.08810863,1.0273060323275225
1.014853,-0.1203501,0.08868306,1.0258047783618351
1.016995,-0.1220635,0.08923717,1.028173915525413
1.019053,-0.1245664,0.08536501,1.030181047073892
1.018119,-0.1249478,0.08460996,1.0292410292137804
1.018539,-0.1222743,0.0863954,1.029483785254848
1.020341,-0.1195249,0.08812156,1.0310903778708458
1.020415,-0.118807,0.08816615,1.0310844511871093
1.021908,-0.1181566,0.08748509,1.032429456941184
1.023996,-0.1174678,0.08833936,1.0344903743283693
1.024485,-0.1183863,0.08184867,1.034545328167625
1.02512,-0.1182194,0.07650382,1.0347461888844784
1.023884,-0.1179613,0.08660638,1.034289117611896
1.021244,-0.1202422,0.09842158,1.0329977258477079
1.019876,-0.1217883,0.09839518,1.031824140461989
1.018095,-0.1246265,0.09210567,1.0298216583338102
1.016068,-0.1310968,0.08445234,1.0279653444186314
1.016961,-0.1348248,0.0776377,1.028792989224426
1.020785,-0.1316228,0.08516029,1.0327530453587268
1.023171,-0.1279894,0.09973782,1.0359574385522372
1.021861,-0.1294266,0.09984689,1.0348529120368903
1.019083,-0.1291929,0.09571305,1.0316888844219039
1.017954,-0.1267318,0.09043149,1.0297908280961043
1.020559,-0.1265624,0.08151422,1.0316022884992881
1.023772,-0.1270419,0.08438227,1.0350696207646917
1.024165,-0.1297363,0.08961326,1.0362316300569663
1.024125,-0.1324101,0.08828405,1.0364161923143678
1.022127,-0.1333738,0.08947643,1.034668162350125
1.017759,-0.1329774,0.08938337,1.030294015232699
1.018164,-0.1293422,0.08784779,1.030099300943712
1.019983,-0.1267334,0.0883145,1.031613360651562
1.018756,-0.1251868,0.08865366,1.030240260260506
1.019756,-0.127554,0.08864789,1.0315186720818252
1.019756,-0.1326878,0.08730715,1.0320517866105183
1.018933,-0.1296181,0.0863843,1.030770370947429
1.021144,-0.1278359,0.08504438,1.0326226961646712
1.021757,-0.1322964,0.08262065,1.0335936707954352
1.022396,-0.1357794,0.08175314,1.0346077528127362
1.022788,-0.1391595,0.08068004,1.0353598061730287
1.022324,-0.1334205,0.08366568,1.0343825872500525
1.023615,-0.1245207,0.08772072,1.0348854997876857
1.022696,-0.1268266,0.08411364,1.0339570587396798
1.022405,-0.1275599,0.08259914,1.0336373300349353
1.021916,-0.125181,0.08656909,1.0331876892222576
1.016982,-0.1279452,0.08815594,1.0287826943938763
1.014804,-0.1282375,0.08656321,1.0265306640075367
1.017978,-0.1272308,0.08371628,1.0293081659491867
1.02257,-0.1278494,0.08108275,1.0337162503936572
1.023087,-0.1257885,0.07861166,1.0337840922500239
1.020983,-0.1249446,0.08028532,1.0317282452107543
1.020867,-0.1278697,0.08337648,1.0322169003093682
1.019158,-0.1310137,0.08071335,1.0307095921839053
1.019881,-0.1311566,0.07988247,1.0313779699498438
1.022919,-0.1298859,0.08213536,1.0343983009180455
1.021859,-0.1308096,0.08191352,1.0334489789495902
1.020885,-0.1307489,0.0816655,1.0324585763925156
1.019057,-0.1310253,0.08016942,1.030568743166717
1.01704,-0.1357661,0.07846077,1.0290572811744751
1.01835,-0.1404726,0.07901254,1.0310248567944478
1.018236,-0.1412901,0.07778195,1.030930393285508
1.017752,-0.1404002,0.07325466,1.0299988324632974
1.018462,-0.1436743,0.06887585,1.0308496653914732
1.01938,-0.1464588,0.07012072,1.0322318924886782
1.022407,-0.1399941,0.07591562,1.034735523234703
1.024753,-0.132902,0.07957953,1.036394979825752
1.024566,-0.131462,0.08095504,1.0361329375622617
1.024441,-0.1306973,0.08122584,1.0359337738446388
1.023631,-0.1310493,0.08093684,1.0351546335020074
1.021504,-0.1343655,0.08226968,1.033582512358618
1.021849,-0.1386746,0.08238871,1.034501775262674
1.023488,-0.1430795,0.08043603,1.0365661505115873
1.024454,-0.1459939,0.07778891,1.0377241114439801
1.027167,-0.1475441,0.07410929,1.040352581675133
1.026736,-0.1508084,0.07640137,1.0405609816557784
1.023176,-0.1495573,0.08244215,1.0373298516170797
1.02186,-0.1441922,0.08154024,1.0351995270864922
1.020367,-0.1439265,0.07784658,1.0334039588219828
1.021373,-0.1420675,0.07426736,1.0338769851614937
1.023305,-0.1371993,0.07120461,1.0349139420409514
1.021698,-0.1368006,0.07120263,1.0332719980156613
1.022153,-0.1427302,0.07117411,1.0345213479360067
1.022636,-0.1495131,0.07209255,1.0360192523950087
1.021395,-0.1440441,0.0701243,1.0338829074031064
1.020755,-0.1375944,0.0662862,1.032117652812314
1.018996,-0.1411849,0.06874041,1.0310243779712378
1.019993,-0.1406597,0.07043117,1.0320520437267973
1.021769,-0.1393835,0.07076005,1.0336569228275174
1.020489,-0.1410746,0.0725077,1.0327425663956387
1.021054,-0.1398758,0.07223797,1.0331189837822945
1.022932,-0.1402652,0.074205,1.0351669358031292
1.023723,-0.1402023,0.07570737,1.036048778545975
1.023038,-0.138135,0.0744166,1.0350004145045353
1.020668,-0.1375858,0.07326648,1.0325022981462222
1.017759,-0.1389575,0.07214635,1.0297318411633063
1.014837,-0.1411977,0.07546475,1.027387879793631
1.017029,-0.1404289,0.08050477,1.0298297338827243
1.021478,-0.1397909,0.07926054,1.0340411178516558
1.019325,-0.1420907,0.07362213,1.0318107581709095
1.018399,-0.1435559,0.07024209,1.0308631193487223
1.020553,-0.1449044,0.06950133,1.0331292977261506
1.018936,-0.1455204,0.06909397,1.031591360763806
1.019081,-0.147395,0.07103561,1.0321324665342486
1.019148,-0.150936,0.0709672,1.0327055076234657
1.017163,-0.1475942,0.06943003,1.0301578255337582
1.018301,-0.1429756,0.07357591,1.0309182136952901
1.018454,-0.144636,0.07683562,1.0315385766479044
1.019086,-0.1448829,0.07768339,1.0322606449876417
1.022756,-0.1439115,0.07817467,1.0357855156343223
1.024152,-0.1447761,0.0744613,1.0370110527052736
1.02286,-0.1440279,0.07268436,1.0355045300562522
1.021539,-0.1419849,0.07372939,1.0339911330851836
1.021926,-0.1382919,0.07269446,1.0337997308939006
1.020828,-0.1345144,0.07196462,1.0321641516363105
1.018435,-0.1346973,0.07226021,1.029842099450947
1.019487,-0.1374591,0.07384044,1.031358889000916
1.019893,-0.1415534,0.07656938,1.0325124534135868
1.018998,-0.144364,0.07849786,1.0321626821991674
1.019661,-0.1430633,0.07797282,1.032596447498558
1.019461,-0.1411873,0.07602266,1.0319951690951685
1.019302,-0.1372998,0.0755589,1.031279278204139
1.01978,-0.1318656,0.07478972,1.0309865600874912
1.020237,-0.1352211,0.07463523,1.031861763809166
1.020954,-0.1407973,0.07555159,1.0333823070649206
1.020077,-0.1371371,0.07483302,1.0319707607329436
1.018554,-0.1337564,0.07587342,1.0300969863655831
1.017701,-0.1336311,0.07679268,1.0293054512581736
1.016524,-0.1334434,0.0752032,1.027999856454173
1.017306,-0.1355881,0.07481162,1.0290249797670776
1.019716,-0.1347079,0.07491799,1.0312999777969794
1.019323,-0.1332084,0.0751168,1.0307309977883659
1.017351,-0.1344091,0.07467759,1.0289050518935252
1.01671,-0.1327017,0.07302094,1.0279304562865008
1.01814,-0.1316008,0.07191392,1.0291255715656893
1.02037,-0.1324194,0.0722113,1.0314573700565866
1.019584,-0.1345625,0.0740713,1.0310893059992137
1.01879,-0.1370743,0.07404372,1.0306332520794819
1.019997,-0.1351569,0.07339988,1.0315274160247145
1.019289,-0.1343615,0.07531443,1.0308614560499751
1.019233,-0.1368448,0.07591377,1.0311766619021463
1.019822,-0.1378271,0.07628165,1.0319167172330976
1.019299,-0.1364286,0.07840084,1.0313728259032546
1.020475,-0.1336307,0.07822336,1.0321556489489265
1.020996,-0.1329225,0.07710193,1.0324950027152553
1.019846,-0.1334015,0.0780748,1.0314928493757434
1.019367,-0.1329982,0.07796333,1.0309587201808463
1.020357,-0.1316229,0.0762752,1.0316350621166623
1.022286,-0.1307386,0.07278632,1.0331791208232493
1.022278,-0.1349475,0.06787617,1.0333781067422123
1.021153,-0.1389019,0.06953145,1.0328997094450711
1.020673,-0.1359318,0.07267315,1.0322461983030804
1.020645,-0.1332384,0.07091466,1.0317449182149994
1.021089,-0.1350833,0.07499965,1.0327125405261681
1.020556,-0.1352253,0.08015592,1.032591595165841
1.019839,-0.1340301,0.07845136,1.0315959817258207
1.01974,-0.1351119,0.07907822,1.0316870930664872
1.02093,-0.135311,0.08171343,1.0330944856417368
1.023064,-0.1368622,0.08189199,1.035421415613469
1.022372,-0.1392355,0.08069371,1.0349601469031617
1.021637,-0.1372785,0.0769303,1.0336855505371736
1.022514,-0.1366139,0.07326319,1.0341981110397496
1.021025,-0.1371326,0.07414969,1.032857965615242
1.019498,-0.1346817,0.07760411,1.0312796566440074
1.019352,-0.1342002,0.07882568,1.0311652056831158
1.019667,-0.1354846,0.07775962,1.0315635832214631
1.021429,-0.1372655,0.07433817,1.0332885284615323
1.022677,-0.1424436,0.06925904,1.0348696730176616
1.022196,-0.1452771,0.07073309,1.0348880462259473
1.021249,-0.1399752,0.07424789,1.033467622030556
1.021502,-0.1348094,0.07139767,1.032829868668499
1.022552,-0.1343764,0.07120782,1.0337988988241922
1.021966,-0.1307789,0.07188807,1.0328046864966942
1.01988,-0.1272049,0.07307677,1.0303768802227866
1.01722,-0.1298506,0.08239952,1.0287795622078573
1.016617,-0.1328447,0.08334509,1.0286419411214955
1.020583,-0.1407934,0.07430983,1.032925162926719
1.024263,-0.1520718,0.0717141,1.0379708269807248
1.02278,-0.1488794,0.07186395,1.036054260863765
1.019566,-0.1401926,0.07255037,1.0317133078708913
1.019212,-0.1384521,0.07331292,1.0311822676798397
1.020475,-0.1360577,0.07236416,1.032045296974312
1.021108,-0.1355849,0.07251882,1.0326198681151755
1.020587,-0.1352365,0.07255992,1.0320618573959879
1.018627,-0.1337373,0.07579149,1.030160657614486
1.016919,-0.1379883,0.07857631,1.0292420803635585
1.017141,-0.1407599,0.07407057,1.029502604498471
1.018809,-0.1420509,0.07032275,1.0310652384012238
1.020668,-0.1436789,0.07074475,1.0331561412399253
1.023582,-0.14311,0.07086121,1.0359642338935569
1.02593,-0.1440494,0.06960436,1.0383291200151181
1.02284,-0.1382577,0.06810958,1.0343866646941395
1.019177,-0.1311455,0.06692758,1.0297573502839912
1.019385,-0.1341974,0.06663895,1.0303375515086608
1.019726,-0.136168,0.06861026,1.0310626591421432
1.021275,-0.1360271,0.07039318,1.032696081792665
1.022888,-0.1379848,0.07057477,1.0345629336756625
1.02237,-0.1386169,0.0693172,1.034050258005601
1.022934,-0.1406263,0.06728232,1.0347447198185031
1.023982,-0.1434727,0.06874864,1.0362673050285527
1.024099,-0.140222,0.07307697,1.0362341504840407
1.025135,-0.1352114,0.07599545,1.0368023916521711
1.027036,-0.137993,0.07555214,1.0390154662966187
1.025473,-0.1416741,0.07453064,1.037892692256102
1.019491,-0.1458623,0.0770592,1.0327515819145134
1.015506,-0.1511128,0.07864804,1.0296955999496558
1.018452,-0.1417079,0.07744821,1.0311759454421996
1.024693,-0.1296369,0.07773493,1.0357819217541477
1.02561,-0.1333071,0.07581548,1.0370123634836956
1.0227,-0.1428482,0.066876,1.0347914271094634
1.022235,-0.1490614,0.05868553,1.0347114030619073
1.023739,-0.1436716,0.06475687,1.0357975289504011
1.025894,-0.1290586,0.07741084,1.036873695114051
1.023959,-0.1219308,0.07955869,1.0342575785674266
1.017969,-0.1231212,0.07830124,1.028372889100047
1.01388,-0.1256091,0.07863913,1.0246533136480684
1.013391,-0.1282016,0.07794198,1.0244373682026053
1.015214,-0.1331546,0.081315,1.0271327774548724
1.016215,-0.1385105,0.08158643,1.0288510243934226
1.021132,-0.1370421,0.07882527,1.0332978862781934
1.026166,-0.1358616,0.07772717,1.0380349449160027
1.022978,-0.1389018,0.06802327,1.03460372306924
1.023444,-0.1387655,0.05999279,1.0345494768150214
1.027358,-0.1383109,0.06736973,1.0388132872384157
1.027447,-0.1343107,0.07404096,1.0388304797709835
1.026603,-0.1248722,0.06965931,1.0365130030113061
1.023803,-0.1191788,0.06816807,1.0329680803132133
1.023801,-0.1184379,0.07350647,1.0332469331622867
1.024315,-0.1198457,0.07419606,1.0339677298412235
1.022278,-0.1187403,0.07341315,1.0317659902909249
1.022375,-0.1191027,0.07488236,1.0320094290322448
1.020388,-0.1284056,0.07485543,1.0311561492110906
1.020063,-0.13571,0.07574439,1.031834744852814
1.021539,-0.1316126,0.07660081,1.032826940533803
1.017524,-0.1274859,0.07756073,1.0284081933322697
1.013031,-0.1349903,0.07547555,1.0247686308152162
1.01161,-0.1397203,0.07006659,1.023614127181878
1.018623,-0.1329384,0.07026099,1.029661129226184
1.02821,-0.1308424,0.0703428,1.0388857719930522
1.025535,-0.1344606,0.06778871,1.0365312336735562
1.02326,-0.1368473,0.06800683,1.0346077227838284
1.027313,-0.1366205,0.06800661,1.0385865683672892
1.025845,-0.1337244,0.06812989,1.0367650944605398
1.022879,-0.1318295,0.06880267,1.0336315944815053
1.020244,-0.1280978,0.07252361,1.0308086824955793
1.018097,-0.1259594,0.08102363,1.0290539832660563
1.020021,-0.1260074,0.0866607,1.0314217285961402
1.019525,-0.1225498,0.08526401,1.030397802067881
1.01789,-0.1233867,0.08194239,1.0286101715984546
1.018561,-0.1268501,0.08228697,1.0297225859535135
1.018752,-0.1286992,0.07945262,1.0299183658958144
1.021253,-0.1337923,0.07117351,1.0324358275815548
1.024128,-0.1371924,0.06686348,1.0354374147960226
1.025298,-0.136862,0.06527802,1.0364499099055007
1.025407,-0.1343127,0.06882314,1.0364535887485504
1.023292,-0.1294664,0.07764013,1.0343674665124465
1.022227,-0.125784,0.0790217,1.0329637376287175
1.02025,-0.1212887,0.07820061,1.0304059135370207
1.017532,-0.1189347,0.08335442,1.027844732059092
1.018646,-0.1223993,0.08763644,1.029709380151683
1.020794,-0.1241663,0.08666681,1.031963563526962
1.022905,-0.1280073,0.08378151,1.0342822870455484
1.022754,-0.1367354,0.08386174,1.035256057970678
1.021006,-0.1397633,0.08255002,1.0338285824375772
1.020917,-0.1361446,0.08064469,1.0331071769295557
1.018978,-0.1301731,0.0818149,1.030511949620003
1.018788,-0.1273727,0.07943561,1.0297877498714783
1.020709,-0.1273855,0.07647216,1.0314659080872794
1.020728,-0.1257962,0.07494759,1.0311777126980821
1.022704,-0.1287001,0.07478262,1.0334793793830985
1.022694,-0.1320567,0.07738036,1.0340839955074344
1.020416,-0.1318489,0.0744915,1.0315919392179547
1.021613,-0.1329653,0.07242009,1.0327717861215508
1.023455,-0.1343542,0.07533557,1.034981466592453
1.025244,-0.1376889,0.07500485,1.0371640276459326
1.023925,-0.1374183,0.07463637,1.0357976552042716
1.02034,-0.1338175,0.07332636,1.0316867712523505
1.020684,-0.1344246,0.07157445,1.0319828985181694
1.018993,-0.1321616,0.07326639,1.0301365863161993
1.01574,-0.1293866,0.074542,1.02665726979531
1.015745,-0.1306764,0.07629319,1.0269541749184021
1.016651,-0.1308048,0.07842383,1.0280269688174084
1.019938,-0.1304382,0.07691976,1.0311179842004976
1.021153,-0.1304634,0.07191602,1.0319622386895755
1.020318,-0.1310555,0.07068122,1.0311256955701078
1.022209,-0.1323134,0.07594786,1.0335309153281964
1.021228,-0.1337431,0.07621983,1.0327648847955855
1.019447,-0.1337798,0.07165972,1.0306814911346367
1.019458,-0.1330652,0.07325624,1.0307121023418604
1.019467,-0.1350545,0.07895482,1.0314002839152616
1.021617,-0.1346623,0.08333156,1.0338178653042922
1.022265,-0.1306264,0.08231072,1.0338588110708726
1.020469,-0.1290735,0.07583797,1.0313914611130786
1.018873,-0.1298015,0.07037875,1.0295162883523563
1.019398,-0.1302645,0.06666255,1.0298470847347931
1.021952,-0.1301608,0.06750148,1.0324166668370045
1.022531,-0.1324492,0.07164508,1.0335596035206904
1.023229,-0.1353246,0.07264928,1.0346923463961055
1.023935,-0.1345892,0.07864934,1.035733004043067
1.022857,-0.1325213,0.08373059,1.0347990863469285
1.021136,-0.1279284,0.07711028,1.0320031014024322
1.01848,-0.1238283,0.07294119,1.028569577364364
1.019117,-0.1283634,0.07638229,1.030005279779771
1.020255,-0.1337142,0.08199794,1.032241936016399
1.019201,-0.1322808,0.08562372,1.0313099969826136
1.021377,-0.1329406,0.0820606,1.0332560773253259
1.022984,-0.1360193,0.07621583,1.0347977420593255
1.022081,-0.1348214,0.07540304,1.0336885405673226
1.021746,-0.135025,0.07822254,1.0335934427544766
1.020504,-0.1370054,0.08153674,1.0328829234792236
1.018777,-0.135731,0.08572749,1.031347992983794
1.018234,-0.1349648,0.084107,1.0305774902665206
1.018429,-0.1348126,0.07821358,1.0302860909748206
1.018682,-0.1343617,0.07547026,1.0302727035573436
1.020081,-0.1350083,0.06937052,1.0313121528785358
1.021598,-0.1346809,0.0691059,1.032752169614579
1.022055,-0.1340223,0.07632459,1.033626549078998
1.021653,-0.1322737,0.07853337,1.0331692379877784
1.019333,-0.1297478,0.08445306,1.0310221024969366
1.018934,-0.1311699,0.08714827,1.0310319393626963
1.020357,-0.1323793,0.08268363,1.0322253965038193
1.020879,-0.1289342,0.07943156,1.0320500633664405
1.022474,-0.1267465,0.07091946,1.0327377816972427
1.020838,-0.1278463,0.07103642,1.0312618831480713
1.018164,-0.1288429,0.07633935,1.029119099101184
1.019736,-0.1310908,0.07062072,1.0305501412517288
1.019956,-0.1342545,0.07309296,1.031347222572404
1.019887,-0.1328444,0.08119076,1.0317020242733546
1.021387,-0.1296054,0.08289593,1.0329088530401533
1.020704,-0.1297571,0.08223304,1.0321995124412973
1.019645,-0.1292091,0.07891713,1.0308243453446602
1.0194,-0.128588,0.07872325,1.030489487493474
1.019465,-0.1297452,0.07702548,1.0305705350519538
1.020643,-0.1289535,0.07528321,1.03150797394841
1.022011,-0.1289702,0.07929707,1.0331639859768753
1.022496,-0.1301224,0.08005674,1.0338466958970212
1.022227,-0.1314521,0.08192308,1.0338951035574628
1.022079,-0.1339839,0.08234582,1.0341073453813594
1.022326,-0.1317532,0.07672755,1.0336326585955198
1.022229,-0.1280682,0.07502708,1.0329485248673171
1.022135,-0.1283875,0.07542078,1.0329238125036417
1.022319,-0.1277255,0.07597652,1.0330645539861294
1.022175,-0.1282768,0.07813399,1.0331512901974038
1.022559,-0.1326668,0.07778649,1.0340590535988552
1.024077,-0.1358853,0.07364507,1.0356747139041267
1.025468,-0.1361044,0.07154289,1.0369317295911589
1.024908,-0.1383272,0.07524243,1.036934060582516
1.02279,-0.143184,0.07818954,1.0357193857997502
1.021849,-0.1410773,0.07724826,1.0344300252067886
1.022145,-0.1362393,0.07570106,1.033959476176225
1.022178,-0.1386434,0.07631878,1.0343570042438193
1.021354,-0.1402069,0.07602683,1.0337320963399845
1.02077,-0.1386392,0.07139458,1.032612902655209
1.022645,-0.1385253,0.06830497,1.0342425362030856
1.024348,-0.1381882,0.06976069,1.0359784542124977
1.02344,-0.1381525,0.07404458,1.0353734334449702
1.022417,-0.1381434,0.07776549,1.0346340378546899
1.022147,-0.1378805,0.07828847,1.0343715997764975
1.02213,-0.1366731,0.07705832,1.0341021505851502
1.022294,-0.1357242,0.07510434,1.0339955235824165
1.022241,-0.1378201,0.0771238,1.0343689489594368
1.021979,-0.1379673,0.08079301,1.0344097654097963
1.021549,-0.1359966,0.07749559,1.03347133539446
1.021469,-0.1361808,0.07241957,1.033048267201792
1.02233,-0.1370737,0.07187804,1.0339798260923332
1.02242,-0.1375604,0.07151321,1.034108146787687
1.020811,-0.136549,0.07118779,1.0323606097517883
1.019889,-0.1349165,0.07354219,1.0313992864081525
1.020347,-0.1355113,0.07584141,1.0320965227668766
1.021821,-0.1374136,0.07808265,1.033971737397586
1.022886,-0.1373614,0.07692424,1.0349305589775275
1.021973,-0.1346326,0.07326719,1.0334035179165282
1.022052,-0.1330291,0.07546478,1.033432128962158
1.022217,-0.136326,0.07735917,1.0341647908085485
1.02014,-0.1415457,0.07923219,1.0329562162650874
1.01901,-0.1425236,0.08345993,1.0323080531375142
1.019309,-0.1410715,0.07881542,1.0320386988979757
1.01967,-0.1407864,0.07043108,1.0317500939447142
1.01926,-0.1401391,0.06751884,1.0310619325257604
1.018701,-0.1400525,0.07166811,1.0307777394512467
1.019819,-0.1398322,0.07717135,1.032249608466219
1.021144,-0.1365817,0.07234155,1.032774384542574
1.021024,-0.1339544,0.06902327,1.032084299685279
1.019429,-0.1361905,0.07465254,1.0311917086845208
1.017873,-0.1387788,0.07570352,1.0300757362441026
1.016584,-0.1369906,0.07376241,1.028421288516223
1.016271,-0.135144,0.07359349,1.0278553633402805
1.018988,-0.1349841,0.07428854,1.0305707343856323
1.020634,-0.1356502,0.07566325,1.032385425176374
1.021252,-0.1393672,0.07521919,1.033458654462817
1.022075,-0.1409854,0.07653249,1.0345875558229765
1.019258,-0.1378172,0.07870532,1.031540100323852
1.017782,-0.1354204,0.07697594,1.0296330315209605
1.018658,-0.1362768,0.07390996,1.030387388009695
1.018698,-0.1399288,0.07175283,1.0307638686364833
1.02077,-0.1413055,0.07348688,1.0331209797319887
1.021561,-0.1393785,0.0763496,1.0338483952705106
1.021268,-0.1384885,0.07449944,1.0333041948122363
1.022727,-0.1372284,0.07208269,1.0344071077159107
1.022307,-0.1369975,0.06963762,1.0337936522220064
1.021894,-0.1386217,0.06709502,1.0334336285682264
1.022508,-0.1399437,0.07000403,1.0344116266989323
1.021737,-0.1418027,0.07302011,1.0341114250218406
1.020421,-0.1396399,0.07200233,1.032444988577328
1.019524,-0.1357663,0.07217219,1.0310531023187341
1.021811,-0.1376034,0.07259087,1.0335868854721004
1.024737,-0.1383164,0.07377165,1.0366579001877536
1.022451,-0.1366676,0.07908044,1.0345713103896481
1.019446,-0.1378623,0.08461387,1.0321994321223331
1.019363,-0.1371069,0.08494946,1.032044397567712
1.019323,-0.1344021,0.07975146,1.031234017178226
1.019683,-0.1331073,0.07530902,1.031087979900673
1.020637,-0.1342205,0.07292888,1.0320046753417855
1.021779,-0.1382776,0.06832657,1.0333545082258675
1.022596,-0.138634,0.06709058,1.0341291559069092
1.021199,-0.1332653,0.07154154,1.0323396871818218
1.020342,-0.1289392,0.07321356,1.0310593288596508
1.021051,-0.1300645,0.07189052,1.0318091711295847
1.020814,-0.1334673,0.0725062,1.0320522718369114
1.020776,-0.1351731,0.07417073,1.032354932340783
1.020728,-0.1383479,0.0757851,1.0328451833650676
1.019867,-0.1385958,0.07706321,1.0321221980958186
1.019596,-0.135806,0.07841091,1.0315849667666876
1.021074,-0.1373503,0.0803531,1.0333991673432392
1.022817,-0.1359659,0.07993776,1.0349064628871674
1.02146,-0.134338,0.07722035,1.0331457846297019
1.02023,-0.1365228,0.07382737,1.0319681237232847
1.022005,-0.1356535,0.06887172,1.0332663770311161
1.02263,-0.1354139,0.06682038,1.0337185324819103
1.022053,-0.131979,0.07028309,1.0329329620018661
1.022225,-0.127627,0.07247085,1.0327074250985717
1.022259,-0.1320125,0.07313492,1.0333389955675998
1.022207,-0.1346621,0.07668345,1.0338865428707895
1.022394,-0.1321328,0.07662064,1.0337404367373124
1.022944,-0.1316653,0.07189831,1.033885653900346
1.022642,-0.1339426,0.07099247,1.0338168169726496
1.020247,-0.135691,0.07505602,1.0319638533535174
1.018788,-0.1354208,0.07827211,1.03072513563049
1.020597,-0.1366021,0.07207976,1.032217933352772
1.022175,-0.1378496,0.06542775,1.033501346547368
1.021183,-0.1378153,0.07237392,1.032979070794397
1.01968,-0.1383197,0.07883415,1.0320341394616326
1.018896,-0.1386354,0.07760605,1.0312087722405014
1.018581,-0.137476,0.07694617,1.0306927850793701
1.017991,-0.1348521,0.07335209,1.0295005070726182
1.018265,-0.1344946,0.0694672,1.0294552440635776
1.021029,-0.1349296,0.07144846,1.032381275611647
1.023006,-0.1343956,0.07331747,1.0343978464510457
1.022349,-0.1350649,0.07209015,1.033748999873776
1.021502,-0.1345654,0.07327981,1.03292986859457
1.020571,-0.1345932,0.07711129,1.0322919386359188
1.019036,-0.1350684,0.0776757,1.0308789241928704
1.019362,-0.1343373,0.07426284,1.030854192706299
1.021775,-0.1349666,0.07092604,1.0330879134374973
1.022605,-0.1343548,0.0717761,1.0338878115343317
1.022188,-0.132734,0.07365069,1.033397816059951
1.022221,-0.1317043,0.07333959,1.0332765800795343
1.02212,-0.1311004,0.07547599,1.0332537124765824
1.02218,-0.1307122,0.07633473,1.0333269679210995
1.021283,-0.1284483,0.07659664,1.0321748771991979
1.020644,-0.1285248,0.0805843,1.0318559145333859
1.021809,-0.1291424,0.07958175,1.0330075734919966
1.02234,-0.1274467,0.07744008,1.0331595728304976
1.021423,-0.1306013,0.07744948,1.032647116125814
1.020351,-0.1345559,0.07477298,1.0318975007062914
1.020804,-0.1351415,0.07885509,1.0327255960114277
1.021512,-0.1364532,0.08431721,1.0340288360758727
1.021947,-0.1362483,0.08023861,1.0341071049928157
1.022509,-0.1348074,0.07668285,1.0342040174259053
1.020385,-0.1346305,0.07655323,1.0320713719402759
1.019122,-0.134852,0.07735401,1.0309114198858602
1.020713,-0.1358472,0.08054375,1.0328585507129726
1.022652,-0.1372883,0.07952002,1.0348858023964238
1.026011,-0.1374678,0.07317479,1.037762264706799
1.024944,-0.1354843,0.07062878,1.0362695707424678
1.019079,-0.1333397,0.07261059,1.0303270265392626
1.016448,-0.1342239,0.07303982,1.0278703261310944
1.016421,-0.1370461,0.07308866,1.0282194488467944
1.019036,-0.1381195,0.07398628,1.0310118016805085
1.022174,-0.1364995,0.0720401,1.0337608890765118
1.022153,-0.1328523,0.07143801,1.033223053506381
1.021564,-0.1291936,0.07402096,1.0323580265083823
1.02054,-0.1290735,0.07384348,1.0313169830564997
1.02151,-0.1298816,0.07419456,1.032403381848468
1.023086,-0.1289877,0.07571513,1.033961107130344
1.02198,-0.1310823,0.07472886,1.0330586102880077
1.022925,-0.1338591,0.07529571,1.0343902833177687
1.023262,-0.1334883,0.0771934,1.0348154752826466
1.02135,-0.133978,0.07894934,1.033120963522876
1.020231,-0.1343868,0.0791563,1.032083729745281
1.018171,-0.1337303,0.07499469,1.0296505144500663
1.017668,-0.1341324,0.07125534,1.0289397370265547
1.019247,-0.1340737,0.07038789,1.03043420901062
1.019735,-0.1337455,0.0715973,1.0309575657429069
1.019413,-0.1334064,0.07544141,1.0308693120239578
1.019322,-0.1330249,0.0785946,1.030965603137743
1.019927,-0.133321,0.07913572,1.0316433669393308
1.021181,-0.1325058,0.08000902,1.0328455184953849
1.022554,-0.13149,0.082107,1.0342378171702096
1.021453,-0.1319856,0.08218283,1.0332184896541337
1.019154,-0.1322951,0.08164603,1.0309427449741186
1.019338,-0.1326692,0.08149495,1.0311607545616457
1.019965,-0.1338484,0.07803293,1.0316652235933637
1.021078,-0.1345502,0.07441135,1.0325895057634773
1.022883,-0.1355934,0.07515119,1.0345641126440528
1.022382,-0.1366714,0.07908386,1.0345038822616661
1.02179,-0.1358382,0.08146325,1.033993753259565
1.022495,-0.1344463,0.0782953,1.0342639830385567
1.021508,-0.1320618,0.07130969,1.0324746897484394
1.018479,-0.1296471,0.06690968,1.0288754780133076
1.016118,-0.132034,0.07261354,1.0272300099156624
1.017932,-0.1364494,0.08136282,1.0302542908732353
1.020801,-0.138186,0.0810401,1.0332945127140714
1.019344,-0.137822,0.07798477,1.031570995313436
1.018934,-0.1369949,0.07744603,1.0310150273127792
1.021253,-0.1376234,0.07678272,1.033340929377695
1.021669,-0.1377829,0.07730387,1.0338121499626451
1.022459,-0.1367284,0.07792641,1.034499679759761
1.022543,-0.1359787,0.07802386,1.034491235551075
1.021152,-0.1336504,0.07868343,1.0328624877885366
1.019922,-0.1315948,0.07947153,1.0314425827701612
1.017543,-0.1304616,0.08032938,1.0290125340416143
1.019463,-0.12998,0.08181507,1.0309671742825302
1.008712,-0.2528722,-0.01013614,1.0399745140199061
1.00952,-0.2513164,-0.0111351,1.0403915386819378
1.010496,-0.2514933,-0.008086015,1.0413531723673146
1.00887,-0.2513984,-0.007619001,1.0397489512371716
1.009009,-0.2519909,-0.009524877,1.0400429313473916
1.008574,-0.2513408,-0.01167545,1.0394854627907706
1.008522,-0.2492376,-0.01433536,1.0389617453419973
1.010732,-0.2488043,-0.0117177,1.0409707296633175
1.009681,-0.24828,-0.01181955,1.0398261306214625
1.01005,-0.2456279,-0.01411745,1.0395832675418128
1.011277,-0.2442394,-0.01287323,1.0404324943464582
1.010125,-0.2471528,-0.01743347,1.0400677612776394
1.012188,-0.2506941,-0.01700719,1.0429100266228657
1.012545,-0.2504456,-0.009347925,1.043100071558892
1.008494,-0.24937,-0.008724447,1.038904067232127
1.005921,-0.250299,-0.01013783,1.0366433442795593
1.006617,-0.2504679,-0.009943675,1.0373576192865774
1.00768,-0.2514466,-0.00940547,1.0386206419658144
1.006563,-0.2532936,-0.009724039,1.037989054713215
1.0068,-0.2510561,-0.01044439,1.0376822686302787
1.007568,-0.2489719,-0.01099499,1.0379311978251304
1.007413,-0.2500237,-0.0130643,1.0380575509407846
1.008796,-0.2493694,-0.01087228,1.0392173371074784
1.008523,-0.2485915,-0.008490266,1.0387436931303125
1.008581,-0.2514607,-0.01105466,1.0395144648888757
1.012292,-0.2545866,-0.01426585,1.0439123261269514
1.013591,-0.2532891,-0.01728404,1.0449023023701935
1.007973,-0.2502278,-0.01467814,1.0386717327508723
1.001638,-0.2495821,-0.01055495,1.0323184172792388
1.003972,-0.2500374,-0.01257684,1.034715736367794
1.008062,-0.2499513,-0.0121866,1.0386593096079437
1.008254,-0.2490379,-0.0085943,1.0385903264256318
1.011422,-0.2482853,-0.007006483,1.0414745042890485
1.011617,-0.2491548,-0.005893066,1.041864577226292
1.008251,-0.2515865,-0.01028228,1.0392168066699308
1.00847,-0.2544028,-0.01918388,1.0402406196643612
1.008043,-0.2547765,-0.02043117,1.039941915449521
1.008332,-0.2538515,-0.01586246,1.039916161963791
1.008748,-0.2551367,-0.01357748,1.040601562152412
1.007735,-0.2555206,-0.0136953,1.03971542668725
1.008962,-0.2525134,-0.01531674,1.0401932210641385
1.009137,-0.2496407,-0.01638887,1.039685798174317
1.009722,-0.2495136,-0.01611704,1.0402188773750076
1.010297,-0.2504264,-0.01330193,1.0409564598808565
1.009077,-0.2495928,-0.009687028,1.0395320082865716
1.010053,-0.2479749,-0.01070077,1.0401024566443458
1.009449,-0.246973,-0.01109133,1.039281465211022
1.007562,-0.2468406,-0.008819976,1.037395420092551
1.006842,-0.2474365,-0.01042524,1.0368530851211795
1.006771,-0.2462887,-0.01379259,1.0365501462677038
1.009238,-0.2452775,-0.01552857,1.0387316925638186
1.010188,-0.246097,-0.01376681,1.0398235685973731
1.009601,-0.2456338,-0.009419686,1.0390952186338742
1.009799,-0.2450045,-0.009493382,1.0391397161705676
1.009552,-0.2452327,-0.01210232,1.0389806465967846
1.010087,-0.2460155,-0.01268189,1.039692360337048
1.010546,-0.2471527,-0.0122717,1.0404029362964042
1.0111,-0.2469734,-0.009535904,1.040869830369128
1.010557,-0.2462711,-0.0074644,1.0401589408410477
1.009173,-0.2447191,-0.008172421,1.0384528734125644
1.01094,-0.2438334,-0.007677544,1.0399583430298696
1.012528,-0.2448095,-0.00693263,1.0417258293010532
1.012525,-0.2442284,-0.008730182,1.0416000206745932
1.012303,-0.2430098,-0.01128437,1.0411236543808506
1.010334,-0.2414333,-0.01043167,1.038832830461128
1.008379,-0.2403087,-0.008080581,1.0366493017052523
1.008078,-0.2420263,-0.008412775,1.036758775588078
1.009918,-0.2421209,-0.009475985,1.038579169458222
1.012846,-0.2410907,-0.01119331,1.0412046079091495
1.014341,-0.2419508,-0.01390376,1.0428907749346417
1.012963,-0.2422579,-0.0167044,1.0416630772283186
1.010247,-0.2437517,-0.01820806,1.039396664277336
1.010894,-0.2450963,-0.01621144,1.0403084572839747
1.012533,-0.2427218,-0.01406347,1.0413139437617651
1.011668,-0.2421869,-0.0103382,1.0403045299982356
1.011269,-0.2438958,-0.0052841,1.0402778827464563
1.00987,-0.2428491,-0.008137885,1.038691160761024
1.006409,-0.2426985,-0.0119554,1.0353282420432712
1.004966,-0.2435931,-0.00985769,1.03411383975641
1.006429,-0.2423349,-0.01131762,1.0352553425708435
1.007549,-0.2407705,-0.01334493,1.0360036236558032
1.006832,-0.237645,-0.01139513,1.0345606174781237
1.007261,-0.2365285,-0.0115706,1.0347242783551616
1.009703,-0.2397909,-0.01120786,1.037846539743516
1.011092,-0.2396196,-0.007709485,1.0391265665582443
1.01063,-0.2386947,-0.006261441,1.0384543140415405
1.010948,-0.2403605,-0.009767652,1.039174882149219
1.012517,-0.2398085,-0.01279603,1.0406068087154776
1.012812,-0.2407869,-0.01157786,1.0411054343330408
1.013414,-0.2429104,-0.01240656,1.0421935139671488
1.015246,-0.2421897,-0.01323288,1.0438177045898314
1.015505,-0.2430557,-0.01178568,1.0442535039828944
1.014138,-0.2436846,-0.01192964,1.0430725687274542
1.009917,-0.24244,-0.008144076,1.0386413367774718
1.005449,-0.2434542,-0.00435058,1.0345127194215529
1.007283,-0.2439642,-0.008118185,1.0364378794208238
1.009773,-0.2437789,-0.01129879,1.0388442261810353
1.007846,-0.2455735,-0.009957613,1.0373808643284816
1.008292,-0.2485831,-0.01079869,1.0385388421119963
1.010992,-0.2512721,-0.01459921,1.0418520188755378
1.012082,-0.2500682,-0.01702529,1.0426571535623894
1.012486,-0.2491681,-0.02006027,1.042887844730239
1.00982,-0.2507836,-0.02124921,1.040711475556306
1.007097,-0.2497156,-0.02093209,1.0378055697885455
1.008312,-0.2499429,-0.02571587,1.0391466925195245
1.007819,-0.251225,-0.02548063,1.0389717993724357
1.006464,-0.2502865,-0.01989761,1.0373085511370095
1.008274,-0.2499006,-0.01924344,1.038959613719125
1.010591,-0.2486602,-0.01973249,1.040920475111639
1.011414,-0.2474963,-0.02321434,1.0415140918352117
1.010074,-0.2474624,-0.02506436,1.0402477334904265
1.007958,-0.2490616,-0.01752939,1.0384210561580172
1.006335,-0.2527451,-0.01150624,1.0376524521042427
1.005093,-0.2536886,-0.01326156,1.0366994325225578
1.00573,-0.2542541,-0.01612729,1.0374960577031385
1.007872,-0.2563933,-0.0171193,1.0401137260421958
1.00961,-0.2565976,-0.02183448,1.0419363823874421
1.009945,-0.256865,-0.02429567,1.0423813173837821
1.008543,-0.257226,-0.02067914,1.0410340170984518
1.007005,-0.2565978,-0.02283015,1.0394338443301057
1.007135,-0.2555016,-0.02481964,1.0393353599090571
1.008737,-0.2527026,-0.0243433,1.040193027985984
1.009954,-0.2502161,-0.02615563,1.040816648500545
1.008161,-0.2501924,-0.02426661,1.039025364127196
1.00591,-0.2494273,-0.02452993,1.0366632160692764
1.007193,-0.247809,-0.02417474,1.037512148258548
1.008487,-0.2492657,-0.02160812,1.039060310672785
1.009021,-0.2516812,-0.02433908,1.0402207437316784
1.010311,-0.2523859,-0.02417802,1.0416388701901107
1.009875,-0.2498233,-0.02426306,1.0405997755758234
1.010281,-0.2455082,-0.02859974,1.0400768819449395
1.011755,-0.2468728,-0.02887809,1.0418389047673773
1.010484,-0.2488382,-0.0246511,1.0409639959030523
1.008202,-0.2480207,-0.01962029,1.0384461932195497
1.006932,-0.2507607,-0.01941095,1.0378678944202835
1.009143,-0.2510147,-0.01807431,1.0400503135651977
1.012576,-0.2506757,-0.01169671,1.0432091235084717
1.01066,-0.2537182,-0.01207694,1.0420904054308355
1.007583,-0.2503907,-0.01624015,1.0383557901834573
1.007041,-0.2450542,-0.01767081,1.0365786965516397
1.007297,-0.2439337,-0.02054163,1.0366160594780245
1.008979,-0.2442365,-0.02264771,1.0383655469734605
1.008405,-0.2457158,-0.02029541,1.0381082805091713
1.006559,-0.2452346,-0.01570532,1.0361214632437947
1.006543,-0.2448663,-0.0141196,1.0359959839829738
1.006267,-0.2462956,-0.01447161,1.0360715348682987
1.009559,-0.2458597,-0.01219931,1.0391367521792145
1.014518,-0.2454863,-0.0125695,1.0438717776345618
1.015463,-0.2443559,-0.01751919,1.04459649255206
1.013865,-0.2410584,-0.01994729,1.0423191856691039
1.011463,-0.2398966,-0.01855906,1.0396885195906722
1.01233,-0.2412641,-0.01751804,1.0408300901560503
1.013331,-0.2409665,-0.01817769,1.0417461293890111
1.011382,-0.2407947,-0.01838241,1.0398141903578246
1.010993,-0.2427304,-0.01820619,1.0398828580602126
1.009404,-0.2415081,-0.01753458,1.0380414534484574
1.009178,-0.2409318,-0.01631545,1.0376678475523575
1.011352,-0.2426495,-0.01802559,1.0402098680790803
1.01001,-0.241074,-0.01908665,1.038557255900811
1.009458,-0.2416025,-0.01728016,1.038111663406146
1.009883,-0.24225,-0.01737197,1.0386772942212037
1.009499,-0.2403949,-0.01499272,1.0378355942055602
1.010001,-0.2395109,-0.01081848,1.0380676908223858
1.009518,-0.2365705,-0.01238607,1.0369405038498085
1.009741,-0.2370709,-0.01339969,1.0372844597312283
1.009897,-0.2398795,-0.01175853,1.038061842164045
1.009622,-0.2405124,-0.01271505,1.0379520557011592
1.010869,-0.2444361,-0.01361533,1.0400915918106535
1.011259,-0.2462472,-0.01657844,1.0409405810427765
1.011359,-0.2454525,-0.02075875,1.040925012831766
1.01196,-0.2460502,-0.01755042,1.041590975269187
1.012667,-0.2436298,-0.01231652,1.0416341147456483
1.012281,-0.2388017,-0.01216608,1.0401380141050784
1.009425,-0.2347644,-0.01262042,1.036442197680766
1.00786,-0.2368059,-0.01244077,1.0353808896406207
1.009563,-0.242025,-0.01261946,1.0382450589165795
1.01301,-0.2427193,-0.01200262,1.0417514010450641
1.01461,-0.2436234,-0.0107819,1.0435047017120573
1.011948,-0.2448154,-0.0094045,1.0411828750999559
1.007555,-0.244331,-0.01062065,1.0368112237974771
1.005006,-0.2450036,-0.01373742,1.0345301062594632
1.008706,-0.2461657,-0.01406803,1.0384041870873648
1.013162,-0.249096,-0.01291282,1.0434140100556213
1.010798,-0.2507172,-0.01223424,1.0414995860816352
1.009137,-0.2498205,-0.01266878,1.0396770003111246
1.009429,-0.249539,-0.0151679,1.0399262876533173
1.00781,-0.2471938,-0.01812182,1.0378411107768628
1.009119,-0.2447322,-0.01953602,1.0385550837366695
1.010547,-0.2443619,-0.0179155,1.0398264001845983
1.009307,-0.2455428,-0.01691111,1.038882992700464
1.009906,-0.2478367,-0.01685334,1.0400082662037093
1.011016,-0.2472712,-0.01361752,1.0409043354009004
1.01201,-0.2449566,-0.01380698,1.041325409600803
1.01307,-0.2440133,-0.01830908,1.0422036930885135
1.011622,-0.2449282,-0.01956439,1.0410339376770155
1.008409,-0.2477232,-0.01591136,1.0385127184951994
1.004336,-0.251024,-0.007704593,1.0352599722897122
1.00334,-0.2517866,-0.00423016,1.0344590575722101
1.006653,-0.2481568,-0.0112345,1.0368501694003287
1.007537,-0.2453104,-0.01911593,1.0371467675777255
1.006679,-0.2456729,-0.02169574,1.0364499447486877
1.00774,-0.2458185,-0.02001759,1.0374812511325968
1.01047,-0.2447891,-0.0169908,1.039836531221831
1.013625,-0.2431431,-0.01451748,1.0424801988182606
1.012944,-0.2427734,-0.01462458,1.041733338827042
1.011582,-0.2431785,-0.01635584,1.040529403279098
1.013037,-0.2430323,-0.01583333,1.0419017979402756
1.012553,-0.2430743,-0.01679787,1.0414561256078083
1.011906,-0.2430158,-0.01847909,1.0408419229896864
1.011868,-0.243089,-0.0184816,1.0408221177912966
1.00936,-0.2430622,-0.01957322,1.0383977819747154
1.007517,-0.2433569,-0.0168883,1.0366283329831862
1.007078,-0.2452823,-0.01348775,1.0366057226242542
1.008721,-0.2480907,-0.01416216,1.038878057350022
1.0125,-0.2490489,-0.01403675,1.0427744890156128
1.013098,-0.2462814,-0.01559627,1.0427201586369532
1.011778,-0.2432328,-0.01773355,1.040755204202911
1.010823,-0.2430127,-0.01737484,1.0397692988135954
1.009189,-0.2448368,-0.01851743,1.0386290923948958
1.009818,-0.2465853,-0.02014548,1.0396838671752682
1.011979,-0.2459106,-0.02106431,1.041641600930539
1.012246,-0.2448459,-0.02029169,1.0416348841824883
1.01001,-0.2433373,-0.01633462,1.0390380462147835
1.007644,-0.2398714,-0.0151368,1.0359120821711658
1.009816,-0.2400712,-0.02076456,1.0381684361785586
1.012451,-0.2437067,-0.02538793,1.0416787076712162
1.010813,-0.2449856,-0.02200922,1.0403101801584795
1.0105,-0.2445956,-0.01806011,1.0398381725598325
1.010804,-0.2441848,-0.01611024,1.0400050397954317
1.009097,-0.2444447,-0.01118727,1.0383424877067984
1.009273,-0.2441474,-0.01153927,1.0384474450870844
1.00837,-0.2414961,-0.01605513,1.0370092528104689
1.006718,-0.2395777,-0.01505824,1.0349421995711585
1.010471,-0.2400392,-0.0150698,1.0386999365792222
1.014069,-0.2406906,-0.01570061,1.0423600197838234
1.012535,-0.2409004,-0.01369635,1.040887947354797
1.011778,-0.2436098,-0.01403316,1.0407869068736528
1.013028,-0.2472514,-0.01470224,1.0428687067157485
1.012472,-0.2460877,-0.01816509,1.0421078050614525
1.011996,-0.2449305,-0.02262443,1.04145989777767
1.011984,-0.2464912,-0.02074552,1.041777281636296
1.010641,-0.2453646,-0.0191337,1.0401755218663096
1.010775,-0.2437505,-0.01957869,1.039934484463981
1.01065,-0.2429222,-0.01797616,1.039590188526799
1.00909,-0.2425511,-0.01601973,1.0379548621980066
1.010096,-0.243544,-0.01455584,1.0391436289705605
1.011819,-0.2434994,-0.01425707,1.0408039731891614
1.012544,-0.2458124,-0.01398803,1.042048344806056
1.011995,-0.2502343,-0.01372388,1.042563873248898
1.010415,-0.250399,-0.01498691,1.0410872868772092
1.010933,-0.2485683,-0.01559859,1.0411604325289538
1.010634,-0.2473207,-0.01519026,1.0405668429290633
1.00902,-0.2460191,-0.01489078,1.0386859454588853
1.009817,-0.2452612,-0.0128203,1.0392534771683615
1.009991,-0.2443778,-0.008714567,1.0391719169087654
1.0094,-0.2440624,-0.007437463,1.0385134235770073
1.009916,-0.2446682,-0.01060276,1.039184908313654
1.009697,-0.2448909,-0.01236118,1.039043975721337
1.009629,-0.2456438,-0.01230908,1.0391549968940565
1.008963,-0.2464897,-0.01458849,1.0387378550989514
1.00515,-0.245569,-0.01767769,1.0348638349970183
1.002174,-0.245544,-0.02025467,1.032014938781803
1.005831,-0.2459944,-0.02017854,1.0356719648947206
1.010413,-0.2436924,-0.01840324,1.0395475437079622
1.008488,-0.2425079,-0.0195046,1.0374191810100535
1.008497,-0.2427893,-0.01801622,1.037466831945281
1.012793,-0.2412821,-0.01536683,1.0412506192524733
1.012815,-0.2396376,-0.017105,1.0409192978246489
1.012007,-0.2390321,-0.01756499,1.040001462380275
1.011917,-0.2399881,-0.01980881,1.0401743565307817
1.010547,-0.2431286,-0.02372947,1.0396537130667312
1.011543,-0.2471188,-0.02237996,1.0415314708505172
1.013109,-0.2465423,-0.02040478,1.0428754990971543
1.013794,-0.2435173,-0.01734898,1.0427751133117487
1.012188,-0.2450422,-0.0120604,1.0414968460696366
1.008241,-0.2455432,-0.01244935,1.0377843530631314
1.007788,-0.2461332,-0.01640504,1.037539074167157
1.008519,-0.2502754,-0.01949911,1.0392923383230304
1.007114,-0.2514682,-0.02328522,1.038295269216656
1.005821,-0.2497387,-0.02134967,1.0365814539763862
1.00517,-0.245563,-0.01671788,1.0348658866639167
1.006172,-0.2433606,-0.01750069,1.035332192760776
1.008393,-0.2452216,-0.01506367,1.037890644388622
1.010676,-0.2460685,-0.01379063,1.0402912405399012
1.01163,-0.2480111,-0.01616707,1.0417130779516954
1.010768,-0.2480769,-0.01226417,1.0408383678570843
1.010541,-0.2465366,-0.01416413,1.0402759395464343
1.010975,-0.2462278,-0.02010434,1.04072223220448
1.011218,-0.24302,-0.0167416,1.0401446270084558
1.01025,-0.2398682,-0.01457149,1.0384383198784897
1.009126,-0.2382996,-0.01553917,1.0369973235454606
1.009951,-0.2398395,-0.01443526,1.0381389044306728
1.009997,-0.2434922,-0.01719073,1.039075508645918
1.01035,-0.244858,-0.02107462,1.0398108973617004
1.012021,-0.2465409,-0.01851184,1.0417828987049056
1.012465,-0.2458487,-0.01494093,1.0419933737341878
1.012473,-0.2442566,-0.01475598,1.0416240210931775
1.010988,-0.2453476,-0.01589399,1.0404541315636553
1.010337,-0.2469041,-0.01840108,1.0402312665513263
1.01198,-0.2504359,-0.01996806,1.0426986064194073
1.01169,-0.2508331,-0.0209135,1.0425311864102003
1.011364,-0.2490506,-0.02176461,1.041804703437651
1.010533,-0.2503134,-0.02193852,1.0413044900356236
1.008804,-0.2491473,-0.02077535,1.0393226172276404
1.010158,-0.2481465,-0.01670131,1.0403243745015138
1.011121,-0.2498275,-0.01400818,1.041621661403104
1.011742,-0.2498349,-0.01115117,1.0421917771765323
1.012925,-0.2481095,-0.01013537,1.042918072209072
1.010504,-0.2456507,-0.01439589,1.0400335773788183
1.008909,-0.2451784,-0.01592179,1.0383945885376928
1.009592,-0.2457419,-0.01730868,1.0392134902333363
1.008005,-0.2454116,-0.01942691,1.0376311185925893
1.006674,-0.2461862,-0.0208552,1.0365496257842555
1.008529,-0.2464543,-0.02323553,1.0384653849232872
1.010698,-0.247749,-0.02019267,1.0408159098162986
1.009932,-0.2492606,-0.01825463,1.0403973869886434
1.009863,-0.2455834,-0.01995639,1.039486768855858
1.011025,-0.2435225,-0.01796003,1.0400948616875536
1.009367,-0.2470013,-0.01596515,1.0392719898588685
1.009425,-0.2496736,-0.01479621,1.039949356936348
1.011267,-0.2505096,-0.01556701,1.0419492966461947
1.010825,-0.2499909,-0.01869955,1.0414472160786703
1.010328,-0.2493235,-0.02053607,1.040839375411641
1.008956,-0.2485501,-0.02065583,1.0393247930550866
1.00673,-0.2465167,-0.0186432,1.0366404126721716
1.005199,-0.2467772,-0.01823535,1.035208454385136
1.004961,-0.246937,-0.01850484,1.0350202522624499
1.00616,-0.2451379,-0.01737894,1.035737690330874
1.006013,-0.2457921,-0.01894917,1.0357774778566577
1.008191,-0.2464188,-0.02086971,1.0380784470693551
1.012863,-0.2463481,-0.02257932,1.0426354438797256
1.013026,-0.2476522,-0.02267809,1.0431047812213727
1.011736,-0.2473907,-0.01916989,1.0417194328729313
1.010701,-0.2468407,-0.01741027,1.040552718548639
1.00806,-0.2473124,-0.01716462,1.0380958582777913
1.006796,-0.2462861,-0.02066016,1.0366879332183025
1.006071,-0.2454322,-0.02557545,1.035890884929751
1.005347,-0.2457269,-0.02240304,1.0351841362742435
1.007133,-0.2450225,-0.01909151,1.0366857725219008
1.010999,-0.2440956,-0.01974439,1.0402362620466719
1.013556,-0.2441782,-0.01926548,1.0427319488779798
1.012707,-0.2437756,-0.02082472,1.041842444886672
1.011888,-0.242309,-0.02306519,1.0407511609480606
1.012471,-0.2411136,-0.02339245,1.041047789807443
1.010814,-0.2400816,-0.02123817,1.0391511810701604
1.008855,-0.2405466,-0.01817738,1.0372952785683662
1.009779,-0.2442727,-0.01860386,1.0390711642679675
1.010074,-0.2468797,-0.01663542,1.0399402910488016
1.00938,-0.2459798,-0.01252314,1.03899512772847
1.00969,-0.2453621,-0.01542238,1.0391892541887038
1.008874,-0.2456698,-0.01808489,1.0385121384723206
1.008454,-0.2440167,-0.01502726,1.0376653788856973
1.011049,-0.2413521,-0.01346884,1.0395442877657286
1.013264,-0.2413307,-0.01264813,1.041683452710557
1.011659,-0.2423843,-0.01293213,1.0403707613893363
1.00932,-0.2432608,-0.0190663,1.0383959760189416
1.009704,-0.2448374,-0.02374123,1.0392358567989621
1.009901,-0.2436651,-0.02168477,1.0391067991351817
1.009482,-0.2413548,-0.01895377,1.0381065904830067
1.009925,-0.2419582,-0.01771816,1.0386559629473204
1.009638,-0.243567,-0.01761121,1.0387511392295383
1.009668,-0.2448815,-0.01852024,1.0391051046722404
1.009694,-0.2447479,-0.01710384,1.0390746121107741
1.008661,-0.2437961,-0.01329322,1.0377910488119362
1.008173,-0.2435856,-0.01012489,1.03723153435184
1.008385,-0.2420031,-0.01089431,1.0370749705903552
1.009725,-0.2408272,-0.01533716,1.0381606544084137
1.011436,-0.2409429,-0.01847666,1.0399027118539337
1.011393,-0.239129,-0.02029782,1.03947606061263
1.010258,-0.2393549,-0.0209672,1.0384371036292233
1.01075,-0.2447808,-0.02114652,1.0401828578941064
1.011689,-0.2496979,-0.02291835,1.0422998247875381
1.009702,-0.2492305,-0.02064736,1.0402116536595905
1.008303,-0.2461964,-0.01701742,1.0380641597538258
1.008329,-0.244382,-0.01754641,1.0376694129966866
1.007078,-0.2414595,-0.01678411,1.0357560014659541
1.00691,-0.2399159,-0.01365392,1.0351878171154143
1.007258,-0.2417707,-0.01229494,1.0359405945767806
1.008626,-0.2419926,-0.0142246,1.0373471769739964
1.010538,-0.2433647,-0.01515268,1.0395398166310283
1.009652,-0.245141,-0.01810052,1.0391433490184452
1.009439,-0.2429646,-0.02337658,1.0385303828327106
1.010011,-0.2407197,-0.02012168,1.0384955830888798
1.009558,-0.2389054,-0.01765146,1.0375908247248968
1.009773,-0.2384424,-0.01784095,1.0376967712890228
1.009734,-0.2399668,-0.01335079,1.037942705283805
1.009686,-0.2422873,-0.01399525,1.0384434608392759
1.009592,-0.2457276,-0.01567692,1.0391842116229666
1.008416,-0.2458594,-0.01756355,1.0381031509021454
1.006333,-0.2451236,-0.02114835,1.0359724604803364
1.00539,-0.2465078,-0.01845516,1.0353336372838784
1.008254,-0.2453133,-0.01636581,1.0377969856430718
1.010685,-0.2437356,-0.0149645,1.0397668720403677
1.008865,-0.2424512,-0.01364369,1.0376788148956575
1.007701,-0.2398194,-0.01548845,1.03596068559611
1.010044,-0.2390924,-0.01522507,1.0380683312914738
1.012866,-0.2412093,-0.01641705,1.0413207862581024
1.013932,-0.2445058,-0.01829883,1.0431567638840333
1.011383,-0.2453103,-0.01862722,1.0408744829709384
1.007637,-0.2453368,-0.01938135,1.0372550823838185
1.00884,-0.2467192,-0.01882069,1.038740933833223
1.011437,-0.2454518,-0.02122039,1.0410099404155524
1.012901,-0.2451287,-0.02237914,1.0423806124788726
1.015896,-0.2446117,-0.01640463,1.0450591746299953
1.014252,-0.2409688,-0.01336874,1.042569808351761
1.010633,-0.2415833,-0.01982741,1.0392952793673211
1.01197,-0.2431107,-0.02508287,1.0410644762558785
1.011235,-0.2429903,-0.01670811,1.0401536771356732
1.009155,-0.2445696,-0.008976204,1.0384067967359465
1.00906,-0.2452971,-0.01532503,1.0385603532837708
1.006928,-0.2456768,-0.02025847,1.0366636353460947
1.007157,-0.2431535,-0.02079907,1.0363018134328024
1.011009,-0.2392835,-0.02311464,1.0391968427759872
1.012928,-0.2392438,-0.02135732,1.0410172256692118
1.011218,-0.2391213,-0.01988615,1.0392960591667382
1.008465,-0.2396497,-0.02069955,1.0367555672892683
1.009687,-0.2422534,-0.0171453,1.0384837548525494
1.010537,-0.2446116,-0.0129244,1.0398013768691212
1.008371,-0.24564,-0.009782595,1.0379049968113334
1.007385,-0.241655,-0.006262776,1.0359830595203892
1.005467,-0.2373351,-0.008312708,1.0331316174115006
1.007404,-0.2404094,-0.01424929,1.0357907805584408
1.011863,-0.2435295,-0.01607348,1.0408802548317266
1.010334,-0.2419836,-0.01762171,1.0390579285527273
1.010621,-0.2429339,-0.02014913,1.039604575235203
1.012312,-0.2437178,-0.01629634,1.0413642600349964
1.01126,-0.2415887,-0.01162634,1.0397822172693114
1.01292,-0.2423406,-0.01328322,1.0415912522395376
1.012762,-0.2431373,-0.01613357,1.0416635288692
1.010714,-0.2433448,-0.01582478,1.039716261845071
1.010444,-0.2443502,-0.01504064,1.0396779877575792
1.009241,-0.2426885,-0.01819538,1.0381696277423043
1.009603,-0.242563,-0.0206138,1.0385374116171453
1.010174,-0.2437298,-0.01917866,1.039338032924532
1.009295,-0.242676,-0.01925061,1.0382382308441414
1.009913,-0.2430329,-0.02003937,1.0389373582663235
1.009794,-0.2431572,-0.02109051,1.038871578184667
1.009488,-0.2422007,-0.02283576,1.0383875351521066
1.010333,-0.2430181,-0.02185182,1.0393786941504632
1.011348,-0.2437928,-0.01845885,1.0404808674738628
1.012889,-0.2446421,-0.01384459,1.042106307478118
1.011561,-0.2459569,-0.01168321,1.0410989149809513
1.008481,-0.2442483,-0.015218,1.037748884334688
1.008204,-0.2411053,-0.01793452,1.0367876920140018
1.009229,-0.2411694,-0.01558107,1.0377613519878763
1.010069,-0.2412887,-0.01444726,1.038589594031347
1.009859,-0.2396568,-0.01630558,1.0380348999943965
1.009381,-0.2402332,-0.01791109,1.0377296375685858
1.010144,-0.2410148,-0.02003797,1.0386917515782825
1.010596,-0.2418705,-0.01826766,1.0392975134138087
1.011044,-0.2448578,-0.009681075,1.0403167956781223
1.010543,-0.2463824,-0.004097803,1.0401529857997749
1.009262,-0.2483205,-0.009483259,1.0394050161344766
1.010648,-0.250397,-0.01726658,1.0413482473687161
1.01153,-0.2462286,-0.01576275,1.0411867885473396
1.009616,-0.2409035,-0.01384843,1.0380514162514858
1.007462,-0.2411662,-0.01663423,1.0360586446114588
1.005517,-0.2422378,-0.01616904,1.0344104731161425
1.005171,-0.2414161,-0.01829896,1.0339174650412342
1.006357,-0.2416114,-0.0202006,1.0351514595938702
1.008178,-0.2411549,-0.01513641,1.0367293168352567
1.010468,-0.2379002,-0.01336535,1.0381814469372213
1.010147,-0.2368993,-0.01651061,1.0376853281183376
1.009025,-0.2446346,-0.01921855,1.0384348274235906
1.010055,-0.2523957,-0.01784096,1.041265092211014
1.009858,-0.2452345,-0.01436002,1.0393071491761472
1.00988,-0.2368059,-0.01368098,1.0373629152271497
1.012736,-0.2408822,-0.01254473,1.0410647483339415
1.014231,-0.2414526,-0.01257529,1.0426514361599202
1.012139,-0.239137,-0.01366921,1.040095528012703
1.009278,-0.2433104,-0.01475843,1.0382966066053692
1.00968,-0.2455289,-0.01980891,1.0392932868303335
1.012054,-0.2469177,-0.02310887,1.041996002565253
1.012546,-0.2480313,-0.02046978,1.0426830485765741
1.011638,-0.2465831,-0.01544302,1.041370805773011
1.009952,-0.2469166,-0.01462867,1.0398003883657327
1.010124,-0.244703,-0.01799369,1.039496910271895
1.011799,-0.2418486,-0.01915136,1.040478128704688
1.010852,-0.2427895,-0.01971608,1.0397871085105914
1.009965,-0.2416241,-0.018573,1.03863201532343
1.009759,-0.2405456,-0.0173045,1.0381593661286355
1.009397,-0.2454476,-0.01856348,1.0389761454164723
1.010375,-0.2504006,-0.01802647,1.041097043856153
1.01143,-0.247205,-0.01781623,1.0413541064289387
1.012019,-0.2439044,-0.015692,1.0411138513939577
1.008481,-0.2465968,-0.01404936,1.0382876738397935
1.003571,-0.2461689,-0.01840311,1.0334856331008584
1.005677,-0.2450448,-0.0184327,1.0352646747403922
1.008854,-0.2466724,-0.01522533,1.0386844934393547
1.009802,-0.246652,-0.01496654,1.0395966937363603
1.011652,-0.2484232,-0.01313055,1.0417899340776635
1.00953,-0.2502436,-0.01366935,1.0401728372584926
1.007029,-0.2498103,-0.01581164,1.0376717211076822
1.008938,-0.2498563,-0.01473463,1.039519681302344
1.009106,-0.2479573,-0.01550424,1.0392392040898322
1.008104,-0.245668,-0.01524306,1.0377180695729276
1.008488,-0.2455807,-0.01280675,1.0380375422893204
1.008973,-0.2457399,-0.01348752,1.0385550184640002
1.009642,-0.2450578,-0.01648909,1.0390871876766974
1.009828,-0.2443691,-0.02083919,1.039183871342635
1.011291,-0.2461856,-0.01941013,1.0410060468003905
1.011673,-0.2484061,-0.01643873,1.0418531956519703
1.009476,-0.2486086,-0.02085162,1.0398474987355522
1.009318,-0.2484481,-0.02173153,1.0396737675414105
1.008114,-0.2467874,-0.02087737,1.0380913844035489
1.005742,-0.2447518,-0.02251105,1.0353391529056275
1.005974,-0.2449664,-0.02081145,1.035579713134659
1.007063,-0.2470785,-0.01791625,1.0370846942971015
1.008953,-0.2501953,-0.01353254,1.039599429583309
1.008424,-0.2493684,-0.01450329,1.0389003359877136
1.005763,-0.244679,-0.01999748,1.0352907439054744
1.005666,-0.2428883,-0.01948357,1.0347649198406539
1.006267,-0.2429379,-0.02022653,1.035374913285642
1.007601,-0.243503,-0.02200053,1.0368401562103393
1.009091,-0.2460111,-0.02198387,1.0388789140917176
1.009688,-0.2477874,-0.02413918,1.0399284364579287
1.010297,-0.2479647,-0.02169225,1.0405080847187842
1.009334,-0.2479983,-0.01742002,1.0395007154666562
1.0096,-0.2480832,-0.01616022,1.0397589080323806
1.010213,-0.2464944,-0.0148107,1.0399563218880157
1.009206,-0.246467,-0.01611163,1.0389910091748904
1.01016,-0.2493169,-0.01770478,1.0406226988973757
1.010882,-0.2488678,-0.01817567,1.0412242576797706
1.011759,-0.2492258,-0.01996959,1.0421941076361008
1.012564,-0.2491258,-0.0197701,1.0429479254381064
1.010998,-0.2443051,-0.01858903,1.040263183010122
1.010828,-0.2452082,-0.01771502,1.040295212362741
1.009791,-0.2469635,-0.01530367,1.0396648673148088
1.008851,-0.244216,-0.01457186,1.0380915826461843
1.009915,-0.2452503,-0.01611866,1.0393920473407932
1.006905,-0.2463291,-0.01703376,1.0367380833708904
1.00473,-0.2461952,-0.01760768,1.0346035374954128
1.00755,-0.2487518,-0.01503173,1.0379115633858371
1.009121,-0.2516327,-0.01079693,1.040077296188949
1.008867,-0.2515417,-0.01279957,1.0398315630524373
1.010641,-0.2481402,-0.0162698,1.0407850383864479
1.013226,-0.2464723,-0.01643628,1.0429025232702855
1.010891,-0.2468751,-0.01630546,1.0407275325015772
1.007403,-0.2456224,-0.01472331,1.037018776902384
1.008617,-0.2445957,-0.01546396,1.037966494259989
1.009508,-0.2478229,-0.01872086,1.0396504520402758
1.009969,-0.2525687,-0.01948683,1.0412531227920223
1.011561,-0.2516723,-0.01900719,1.0425717608778715
1.011273,-0.2486682,-0.01870139,1.0415655026008552
1.010888,-0.2459057,-0.02402001,1.0406445707910508
1.010815,-0.2421825,-0.03008089,1.0398577727143468
1.009723,-0.2463676,-0.02611319,1.03967275127837
1.009021,-0.2528633,-0.02316409,1.0404805630060652
1.008877,-0.2514629,-0.0252634,1.0400503019493674
1.007408,-0.2509892,-0.02249563,1.038447163003365
1.006497,-0.2524828,-0.01983289,1.0378714365616737
1.009098,-0.2509435,-0.02270262,1.0400802001533893
1.010248,-0.2496182,-0.02469764,1.0409227832537866
1.008593,-0.2497072,-0.02335336,1.0393069348388522
1.008263,-0.2503176,-0.02330247,1.0391324184851807
1.009462,-0.2500093,-0.02384228,1.0402339322700873
1.012012,-0.2490009,-0.0212411,1.0424111092433828
1.012725,-0.2467514,-0.01568702,1.0424702689398104
1.010202,-0.2426591,-0.01171441,1.0390037281061402
1.007364,-0.2412643,-0.017132,1.0359943032538788
1.006181,-0.2405273,-0.02394719,1.0348077380437324
1.00756,-0.2407103,-0.02033597,1.0361139675739977
1.008909,-0.2482325,-0.01667312,1.0391317227704024
1.009928,-0.2544247,-0.01535942,1.0415960853117807
1.009686,-0.252008,-0.01312643,1.0407430777211757
1.00614,-0.2477242,-0.01713109,1.0363293169211358
1.003127,-0.2446754,-0.01691493,1.0326741714360175
1.003019,-0.2426353,-0.01324421,1.032034113905938
1.007259,-0.2447797,-0.01993356,1.0367666764645571
1.011529,-0.2498929,-0.02436271,1.042224026277438
1.009979,-0.2507732,-0.0248686,1.0409434305211787
1.009928,-0.2487961,-0.02466572,1.04041456271158
1.012941,-0.2464945,-0.01577679,1.0426206957057558
1.012392,-0.2423601,-0.01028695,1.0410484143767342
1.010357,-0.2428518,-0.01261592,1.0392100007456078
1.009769,-0.2473547,-0.01537067,1.0397374853631751
1.011234,-0.2511435,-0.01850821,1.0421179463888213
1.013388,-0.2538186,-0.02259876,1.044935320583766
1.01228,-0.2510822,-0.02704317,1.0433045588899192
1.010288,-0.248606,-0.02532589,1.0407344459007264
1.010547,-0.2499954,-0.02169923,1.0412366665714154
1.011078,-0.2474954,-0.02012689,1.041123329296886
1.010864,-0.2447695,-0.01798993,1.0402315954669203
1.008368,-0.2472751,-0.02013162,1.0384393485552414
1.006599,-0.2506825,-0.01950376,1.0375276667450308
1.010537,-0.2514044,-0.01660374,1.0414724599769056
1.014014,-0.2488452,-0.01731129,1.0442451850597656
1.012577,-0.2459233,-0.01685463,1.042148995568449
1.011781,-0.2461067,-0.01824148,1.0414422938110786
1.012791,-0.2463173,-0.01605199,1.0424372826905464
1.011664,-0.2452136,-0.01015918,1.041007669260526
1.010269,-0.2463943,-0.01015946,1.0399311602509955
1.010499,-0.2480725,-0.01421704,1.0406009410353287
1.009509,-0.2495646,-0.02091059,1.0401096881715448
1.009378,-0.2506863,-0.02419557,1.040323504252074
1.010194,-0.2483511,-0.02471052,1.040567535677469
1.009435,-0.2467124,-0.02600447,1.0394721064072576
1.010093,-0.2471323,-0.02328316,1.0401463108101068
1.011696,-0.2472248,-0.02304898,1.0417198057203676
1.012436,-0.2478379,-0.02343621,1.0425926983782179
1.011126,-0.2488925,-0.02155651,1.0415315393955338
1.00868,-0.2518679,-0.02438254,1.039936195017397
1.009673,-0.2529934,-0.02499458,1.0411868018765589
1.010519,-0.2498988,-0.02118783,1.0411757698595125
1.010218,-0.2473193,-0.0184403,1.04021502024369
1.012503,-0.2453407,-0.01867158,1.0419707347066838
1.013005,-0.2435741,-0.01943071,1.0420580716576757
1.012094,-0.243345,-0.01615969,1.04106300935241
1.012328,-0.2457369,-0.01517965,1.0418373315348861
1.010351,-0.2467607,-0.01562462,1.0401654267546268
1.007295,-0.2450132,-0.01366586,1.0367552463955896
1.006666,-0.2461279,-0.01406636,1.0364136438691165
1.008831,-0.2460915,-0.01381189,1.0385045889347926
1.010534,-0.245606,-0.01403549,1.0400472428556022
1.009647,-0.248214,-0.01718924,1.039852260841307
1.009416,-0.2488084,-0.02212016,1.0398632518004403
1.010193,-0.2488216,-0.0258451,1.0407065172610237
1.010509,-0.2479596,-0.01902632,1.040660560973607
1.011325,-0.2449891,-0.01256799,1.0406516559908268
1.011344,-0.2405146,-0.01828109,1.039710612334388
1.010802,-0.2375907,-0.02055259,1.038553047699634
1.01107,-0.2419268,-0.01418918,1.03970786968615
1.010286,-0.2441971,-0.01086542,1.0394364255673294
1.009278,-0.2406876,-0.01257686,1.0376563879653125
1.009766,-0.2407589,-0.01349137,1.0381590628365611
1.009876,-0.2456334,-0.01397337,1.039413564295135
1.009572,-0.2505142,-0.01694836,1.0403269844103484
1.009786,-0.2487645,-0.0181275,1.0401346780645764
1.009737,-0.2454349,-0.01699271,1.0392766000926579
1.009673,-0.2462171,-0.01684958,1.039397101981522
1.009767,-0.2457482,-0.01499955,1.039349103329792
1.009523,-0.2465769,-0.01256391,1.039276049458034
1.008827,-0.2474443,-0.0123394,1.0388035706156626
1.008074,-0.2441351,-0.01170668,1.0372811493923102
1.00839,-0.2424792,-0.01145082,1.0371970284431558
1.009445,-0.2437935,-0.01237339,1.0385410822145371
1.00989,-0.2443622,-0.01255956,1.0391094453599357
1.009786,-0.2409213,-0.01404387,1.0382235158549757
1.009634,-0.2373135,-0.01785777,1.0373029505345208
1.009899,-0.2392872,-0.02226602,1.0380992871259862
1.010692,-0.2413438,-0.02225092,1.0393460694606422
1.011483,-0.2419812,-0.0170208,1.0401646350819085
1.012139,-0.2438733,-0.01809167,1.0412621429290891
1.012064,-0.2446822,-0.02177537,1.0414495118974694
1.009603,-0.2444611,-0.01838138,1.0389404805632103
1.005803,-0.2433928,-0.01887581,1.0350053266065813
1.005542,-0.2425158,-0.02081923,1.0345830403362664
1.007932,-0.2419504,-0.01828046,1.0367261392971492
1.008129,-0.2399444,-0.01981287,1.0364795924426091
1.008973,-0.239993,-0.01987977,1.0373130482324286
1.010907,-0.2422637,-0.01823529,1.039690910217106
1.01126,-0.2426524,-0.0184413,1.0401283845619491
1.01281,-0.2435858,-0.01610451,1.0418145196262047
1.012762,-0.2459392,-0.01811614,1.0423536603615586
1.009985,-0.2447211,-0.0207054,1.0394165818377972
1.009305,-0.2435186,-0.01798893,1.038422598547193
1.008789,-0.2461036,-0.01770016,1.0385256492345218
1.008232,-0.2450515,-0.01826452,1.0377454390008565
1.009303,-0.2399905,-0.01725757,1.0375865311488748
1.009948,-0.2363493,-0.01456419,1.037337008857221
1.009888,-0.2372653,-0.01253025,1.0374611329072296
1.010031,-0.2423444,-0.01846332,1.0388620328791414
1.01244,-0.2432332,-0.02345484,1.0415120127495725
1.01488,-0.2401935,-0.01539784,1.0430299254186888
1.013777,-0.2375408,-0.007415751,1.0412609810976947
1.011838,-0.2346416,-0.01199623,1.0387572999641317
1.008941,-0.2331843,-0.01637207,1.0356664057135267
1.005741,-0.2338073,-0.01600405,1.0326843381356632
1.00729,-0.2400007,-0.01672673,1.0356221625655677
1.011382,-0.2453829,-0.01463928,1.040826895336265
1.01311,-0.2429096,-0.01503326,1.0419323129543432
1.012812,-0.2416278,-0.0182034,1.041394980230076
1.01213,-0.240031,-0.01773292,1.0403540139359901
1.012472,-0.2369756,-0.01773865,1.039986367931418
1.012655,-0.240589,-0.01451719,1.0409437855866648
1.0111,-0.2442922,-0.01122889,1.0402538041033411
1.010036,-0.2395834,-0.0151145,1.038172131663054
1.009876,-0.2354614,-0.01829512,1.037124060892319
1.011297,-0.2390789,-0.01744892,1.0393193962605414
1.013421,-0.2407204,-0.01437682,1.0417173931400359
1.012473,-0.2404394,-0.01336895,1.0407167768540402
1.011701,-0.2443668,-0.01382849,1.0408867726505704
1.011162,-0.24633,-0.01160172,1.0407985679520115
1.009305,-0.2440153,-0.01275751,1.0384617487998729
1.011287,-0.2400447,-0.0149977,1.0394940044908292
1.013614,-0.2386548,-0.01472185,1.0414346774649204
1.012323,-0.239254,-0.01374373,1.0403024670543242
1.012141,-0.2388038,-0.009793682,1.0399771992609055
1.012879,-0.2410836,-0.008822439,1.0412122772325867
1.012362,-0.2432229,-0.009539979,1.0412133351661084
1.0124,-0.2431629,-0.00492463,1.041204210477967
1.012701,-0.2431784,-0.002676076,1.0414923000244976
1.011808,-0.2424115,-0.008684156,1.0404778607744052
1.009856,-0.2416671,-0.01464579,1.0384732192613995
1.007596,-0.2406272,-0.01030196,1.0359813120783992
1.008765,-0.2420395,-0.006593464,1.0374167043925835
1.013549,-0.2451906,-0.01398084,1.042878453903649
1.015918,-0.2454368,-0.01802492,1.045300676006309
1.013882,-0.243598,-0.01637489,1.0428637650961472
1.011341,-0.2402232,-0.01665623,1.0396130213194972
1.012396,-0.2393342,-0.01660846,1.040433736981463
1.013301,-0.2395051,-0.01678197,1.041356444280291
1.011795,-0.2387725,-0.01663689,1.039720257997372
1.012324,-0.2438231,-0.01617449,1.0413986744740795
1.011041,-0.2475216,-0.01513803,1.041009128730311
1.008621,-0.2446912,-0.01361889,1.0379670414629127
1.010326,-0.2410582,-0.01649702,1.0388165544176318
1.01176,-0.2386122,-0.01860787,1.0396828037506327
1.012687,-0.2428538,-0.01442015,1.041499336951043
1.012625,-0.2481531,-0.01183144,1.0426549451458442
1.009627,-0.2458225,-0.01688286,1.039259549678053
1.006729,-0.2447643,-0.02164405,1.0362824455214381
1.00465,-0.2472347,-0.019336,1.0348045710568203
1.005868,-0.2483583,-0.0186527,1.0362433120750068
1.008962,-0.2497032,-0.02088103,1.0396114769220763
1.009808,-0.2471052,-0.01900939,1.0397761940144679
1.009251,-0.2415185,-0.01702976,1.0378866891760907
1.007711,-0.2428097,-0.01612597,1.0366764475204069
1.008484,-0.2450936,-0.01308835,1.0379220374973654
1.010584,-0.2432674,-0.008908798,1.0394894976095548
1.010571,-0.241978,-0.006504484,1.0391580278461532
1.01161,-0.2384673,-0.01045004,1.0393895557514956
1.01275,-0.2369381,-0.01657328,1.0402292532617838
1.012706,-0.2384886,-0.01762827,1.0405580284968028
1.012085,-0.238335,-0.01836022,1.0399311117225256
1.010471,-0.2418901,-0.02138227,1.0392399452433316
1.009871,-0.2442341,-0.02262022,1.0392311612902387
1.011126,-0.2416691,-0.02141169,1.0398260442206024
1.013173,-0.2413334,-0.01663414,1.0416515888232973
1.011934,-0.2421252,-0.01266783,1.0405746041240622
1.010347,-0.2434927,-0.01626901,1.0394009986760022
1.01344,-0.2446398,-0.01948148,1.042731410003089
1.014173,-0.2427473,-0.01583829,1.04294006396169
1.01167,-0.2405378,-0.01316912,1.0399557912961563
1.0096,-0.2397188,-0.01445182,1.037769780912295
1.0082,-0.239059,-0.0159287,1.0362770715231955
1.009065,-0.239397,-0.01770395,1.0372253986861306
1.010839,-0.241994,-0.01788722,1.0395559304800914
1.013255,-0.2430667,-0.01594318,1.0421234574955132
1.012771,-0.2431206,-0.017442,1.0416894680994717
1.009705,-0.2453014,-0.02165875,1.0393007578745062
1.009926,-0.246122,-0.02378412,1.0397558601538028
1.010673,-0.2459397,-0.01969867,1.0403529624915089
1.012157,-0.2452582,-0.01136773,1.0415097707662626
1.013279,-0.2431171,-0.01113527,1.042096085009143
1.011586,-0.2420827,-0.01559521,1.0402660619333086
1.010869,-0.2429476,-0.01552062,1.03976947500489
1.00937,-0.244675,-0.02077184,1.0388094733212563
1.009486,-0.2444361,-0.02774195,1.0390286843822036
1.012301,-0.2440191,-0.02221149,1.0415334781243615
1.012432,-0.2440026,-0.01365144,1.0415095704048205
1.011584,-0.2423666,-0.01211727,1.0402838968684525
1.009915,-0.2430983,-0.01374188,1.0388522175717891
1.0091,-0.2434494,-0.01634536,1.0381799416064106
1.010203,-0.2423659,-0.01586766,1.0389913923251173
1.009538,-0.2423667,-0.01521459,1.0383352418471397
1.009813,-0.2403657,-0.01870958,1.0381945930745673
1.01087,-0.2392525,-0.01831847,1.0389588451904102
1.011095,-0.2379651,-0.01738381,1.038866057147468
1.011249,-0.2363509,-0.01878991,1.038671915789398
1.009942,-0.2421149,-0.01719021,1.0387001354991023
1.009836,-0.2483702,-0.01638545,1.0400600877428874
1.011606,-0.2462172,-0.01482159,1.041244106029882
1.012603,-0.2439917,-0.01385539,1.0416759367048574
1.011053,-0.2450016,-0.01506356,1.0404234059513624
1.008648,-0.2425894,-0.0131484,1.0374937519421117
1.009742,-0.2420766,-0.0120318,1.0384241672085641
1.010301,-0.2442949,-0.01153982,1.0394812534204945
1.009132,-0.2424372,-0.01111592,1.037904982667145
1.009998,-0.2428468,-0.01385544,1.038875594810001
1.009797,-0.2437891,-0.01708648,1.0389490142863607
1.009439,-0.2422763,-0.01693376,1.0382445051578302
1.010029,-0.2435046,-0.011084,1.0390264318669473
1.009708,-0.2432516,-0.009271168,1.0386373480299294
1.010823,-0.2435612,-0.01254341,1.039828126475173
1.012384,-0.2450656,-0.01078631,1.041678864258451
1.012355,-0.2428756,-0.01057859,1.0411354905422965
1.010762,-0.24096,-0.01210579,1.0391573953908637
1.009171,-0.2398333,-0.01138753,1.037340732290693
1.010716,-0.2401964,-0.01332677,1.038950790955757
1.012515,-0.2418885,-0.01458223,1.0411096546901404
1.011844,-0.2422581,-0.01486855,1.040547135468025
1.011166,-0.2424466,-0.01418542,1.0399222372601407
1.009999,-0.240046,-0.01207689,1.0382032139177149
1.007802,-0.2368173,-0.01595516,1.0353752324224854
1.007921,-0.2372216,-0.01990485,1.0356519844045502
1.00988,-0.2430202,-0.01778738,1.0388613107125053
1.009676,-0.2507422,-0.01731923,1.040488938703643
1.008608,-0.2493458,-0.01772166,1.03912342042454
1.008312,-0.2449206,-0.01600828,1.0377550070594306
1.008048,-0.245998,-0.01520445,1.0377412787433111
1.008564,-0.2439707,-0.01346615,1.0377400357268252
1.009257,-0.2422295,-0.01087401,1.037975465419453
1.012546,-0.244454,-0.01188605,1.0417045830832283
1.016228,-0.2440278,-0.01407329,1.0452114487740096
1.012062,-0.2418227,-0.01365479,1.0406412270178584
1.007571,-0.239437,-0.01204526,1.0356999977302634
1.010166,-0.2399704,-0.0105792,1.038331864051566
1.01124,-0.2422817,-0.01103331,1.0399175417716762
1.009679,-0.2422354,-0.01179185,1.0383971878720504
1.009846,-0.2434355,-0.009974889,1.0388211033603487
1.009627,-0.2437522,-0.01075173,1.0386902395959214
1.009596,-0.2441802,-0.01402222,1.0387996322399082
1.009654,-0.2465541,-0.01231804,1.0393949480598084
1.008036,-0.2435628,-0.00937346,1.0370859542931874
1.008616,-0.2392145,-0.008346302,1.036628898508683
1.011972,-0.2384547,-0.005414703,1.0397005779284094
1.013075,-0.2390452,-0.008985736,1.0409343431357723
1.010529,-0.2412531,-0.01700503,1.0390674131864164
1.008783,-0.2429241,-0.01655363,1.0377520330579877
1.010155,-0.2430493,-0.01719337,1.0391254487440131
1.010841,-0.2410987,-0.01783221,1.0393488818179264
1.011027,-0.2385387,-0.01260365,1.0388624346466728
1.011305,-0.2387238,-0.01441505,1.0391990422329798
1.009911,-0.2394183,-0.01513837,1.0380127747490138
1.009504,-0.2405834,-0.009929834,1.0378233471910465
1.010147,-0.2422691,-0.009842721,1.0388398132438386
1.011452,-0.2418214,-0.01332165,1.040043366480784
1.012979,-0.2413074,-0.02028209,1.0415215210981137
1.01152,-0.2416654,-0.02251888,1.0402316933806692
1.009587,-0.2408347,-0.012849,1.0379943930937634
1.009589,-0.2401953,-0.0062624,1.0377875258051863
1.009785,-0.2420773,-0.01304436,1.038478367963483
1.010094,-0.243809,-0.0204385,1.039302867117786
1.011113,-0.2427104,-0.01638862,1.0399646262746942
1.011286,-0.2409383,-0.01280585,1.0396704420137721
1.00939,-0.2401506,-0.01155879,1.0376290707216256
1.009069,-0.2411152,-0.007612188,1.037504087624809
1.010558,-0.2429467,-0.01007103,1.0393998249230905
1.010458,-0.2426499,-0.009967432,1.0392322615443983
1.010735,-0.2418708,-0.007623137,1.0393001666195194
1.009864,-0.2420571,-0.01191711,1.0385369303338048
0.9888456,-0.323418,0.007572506,1.0404192261826384
0.9889037,-0.3248939,0.001069908,1.0409071614865701
0.9887924,-0.3266018,-0.004439194,1.041344732787548
0.9885302,-0.3259409,-0.009678136,1.0409241532990214
0.9872652,-0.3220499,-0.01131911,1.0385262805881428
0.9853224,-0.3220369,-0.01230453,1.0366867407090201
0.9864494,-0.3234503,-0.01256425,1.038200546960226
0.9882546,-0.3239423,-0.01377234,1.0400843453775879
0.9891436,-0.3255682,-0.01453963,1.041446645350945
0.9893723,-0.3257216,-0.009035961,1.041649536698905
0.9897783,-0.3240904,-0.007556283,1.0415146508503017
0.9924473,-0.3202484,-0.008784562,1.042874800495909
0.9934927,-0.3171106,-0.008871755,1.0429120699380319
0.9908601,-0.3197352,-0.009706954,1.0412149445945387
0.9888774,-0.3231472,-0.004262801,1.0403464790976926
0.9896823,-0.3238145,0.001301343,1.0413109904524889
0.9916383,-0.3261214,0.001943643,1.0438895838703255
0.9913377,-0.3288267,-0.0004762652,1.0444508896557658
0.9878664,-0.326993,-0.002092967,1.0405810044435864
0.9850455,-0.3260773,0.001899026,1.0376148846972506
0.9863009,-0.3308524,0.003610253,1.0403200516443456
0.9895274,-0.3348515,0.002697085,1.0446517489912641
0.9909234,-0.3353474,0.00144857,1.0461305662819365
0.9913161,-0.3344956,-0.003649447,1.0462352675196798
0.9913987,-0.3337485,-0.008988243,1.0461071800375747
0.9899241,-0.3319291,-0.01091481,1.0441483535709646
0.9888988,-0.3294162,-0.01127359,1.0423833091983812
0.9912725,-0.3311456,-0.01250576,1.0451961402955847
0.9938027,-0.3315888,-0.007171857,1.0476862003221952
0.9903626,-0.3287521,4.417458e-05,1.043501808663772
0.986341,-0.3283697,-0.0003633269,1.039564986023253
0.9875825,-0.3261311,0.001222398,1.040039510283302
0.9882249,-0.3261602,0.0004819489,1.040658042451406
0.9888766,-0.329358,-0.003989294,1.042290524114164
0.9910866,-0.3273277,-0.00266509,1.043744784222445
0.9898771,-0.3274219,-0.002426677,1.0426253701427384
0.9871195,-0.3297603,-0.003209418,1.0407483188073083
0.9859885,-0.329611,-0.002447349,1.0396262419592812
0.9875199,-0.3311789,-0.002959665,1.0415775421533109
0.9899261,-0.3308565,-0.002723714,1.043756257787906
0.9889604,-0.3308599,-0.002745344,1.0428415426659259
0.9882602,-0.3324851,-0.002323447,1.0426936093752621
0.9894289,-0.3297306,2.333986e-06,1.0429246457616281
0.9889217,-0.3271568,0.002110408,1.041634366915309
0.9895703,-0.3258889,0.0003584296,1.0418507965429014
0.9909053,-0.3244238,-0.006425237,1.04268183030349
0.9899281,-0.3240887,-0.01087812,1.0416858749796094
0.9890797,-0.3203804,-0.006851246,1.0396966832821977
0.9877584,-0.3147943,-0.001988864,1.0367092474088675
0.9860529,-0.3141837,-0.005089998,1.0349094776953878
0.9863848,-0.3170439,-0.007139058,1.0361094412982528
0.9878906,-0.3196526,-0.004410368,1.0383280183068428
0.9894471,-0.3230992,-0.005768665,1.0408803649963487
0.988975,-0.3242531,-0.005018266,1.0407866286988208
0.9874759,-0.3256523,0.0006108866,1.0397876931174643
0.9877119,-0.3331563,0.002890378,1.0423896929250034
0.9886768,-0.3353429,-0.001369374,1.0440012215624088
0.9909034,-0.3327294,-0.009250782,1.0453152532722036
0.9917798,-0.3322774,-0.008637219,1.045997152859822
0.9879015,-0.3278137,-0.002425517,1.040873228948971
0.9853499,-0.3283032,-0.0009089678,1.0386039874671729
0.9886365,-0.3315414,-0.0007174201,1.0427474975936455
0.9915862,-0.3278031,-0.002166233,1.0443671562077488
0.989323,-0.327296,-0.001745459,1.0420584036281846
0.9878842,-0.3268309,0.001335918,1.040545729163958
0.9894747,-0.3238372,0.002873308,1.0411238974986563
0.9890507,-0.3237404,0.003876315,1.0406940758842769
0.9896211,-0.3240516,0.001986394,1.0413276654295194
0.9918524,-0.3254873,0.002904612,1.04389731421147
0.9921344,-0.3240938,0.005387131,1.043741577231745
0.9934016,-0.3217498,0.004127459,1.0442158342988277
0.9950194,-0.3216755,0.004318526,1.0457329407374631
0.99476,-0.3174634,0.002009848,1.0441908386059242
0.9950452,-0.3136149,0.0005622814,1.0432974512119844
0.9954801,-0.3131925,0.002177031,1.0435875195766933
0.9925043,-0.3129368,0.001816473,1.0406716705507504
0.9889557,-0.3141359,0.003322764,1.0376539794131276
0.9909512,-0.3168908,0.002919139,1.0403905907295496
0.9930435,-0.3191039,0.002213827,1.0430568502806765
0.9919753,-0.321231,0.00377643,1.0426977570679985
0.9932379,-0.3250761,0.004108292,1.045089888407106
0.99359,-0.3255082,0.006241585,1.0455695260242392
0.9924336,-0.3257079,0.005938214,1.0445311622526539
0.9928271,-0.3291776,0.005307079,1.0459883880443808
0.9899115,-0.3268115,0.008846541,1.042501220935575
0.9850975,-0.3252146,0.01032628,1.0374431322333038
0.984067,-0.327332,0.009020025,1.037118826154458
0.9857494,-0.3264974,0.00493317,1.0384251383577772
0.9866933,-0.3297313,0.002313583,1.0403325195007977
0.9859239,-0.3352995,0.007023212,1.0414033881250133
0.9863075,-0.3370798,0.01172978,1.0423832615037225
0.9894249,-0.3366286,0.008380755,1.0451558181115101
0.9954831,-0.3372039,0.0004501229,1.0510438978327428
1.000783,-0.3397538,-0.004362215,1.0568908584253844
0.9986779,-0.3378556,-0.002679227,1.0542822831941583
0.9950566,-0.3337307,0.003822523,1.0495372451743366
0.9935554,-0.3285344,0.007566287,1.0464914875676181
0.987809,-0.3172065,0.008049966,1.0375217520976854
0.9845105,-0.3111289,0.01031786,1.0325543933664896
0.9874,-0.3166898,0.01049592,1.0369963132821092
0.9882934,-0.3230736,0.01126561,1.039820806422526
0.9881107,-0.3251943,0.01482702,1.0403527905134202
0.9891237,-0.3253934,0.01417299,1.0413680580422995
0.9887512,-0.3253972,0.01115146,1.0409786877402494
0.9868762,-0.326908,0.009134701,1.0396523059911902
0.9864659,-0.3272847,0.006345966,1.0393606294262705
0.9905333,-0.3225637,0.004414249,1.041740392113512
0.9946475,-0.3206045,0.006307736,1.045060133298532
0.9934599,-0.3232487,0.008789328,1.0447629143716728
0.9920062,-0.322151,0.009817227,1.0430503082715663
0.9934541,-0.3220454,0.009560721,1.0443925008606725
0.9923327,-0.3246505,0.004695462,1.0440996992638842
0.9907925,-0.3251407,0.002021352,1.0427801008442037
0.9919435,-0.3252725,0.006977534,1.043936201321336
0.9907699,-0.3247939,0.01244844,1.0427228950596863
0.9897174,-0.3248905,0.01325289,1.0417629326993556
0.9909057,-0.3253446,0.009725076,1.042994627092995
0.9919735,-0.324828,0.006961107,1.0438261882597675
0.9937982,-0.3260603,0.00454448,1.0459306066168064
0.9943703,-0.3256647,0.001830177,1.0463427449435636
0.995285,-0.3208925,0.002798868,1.0457399588058838
0.9972713,-0.3164899,0.003704933,1.0462932806504277
0.9953649,-0.3173255,0.002836896,1.0447271438424364
0.9900708,-0.3193853,0.00272078,1.0403146454378784
0.9865942,-0.3172478,0.00519845,1.0363596412254206
0.9905256,-0.3168364,0.009101794,1.04000438041113
0.9953757,-0.3174119,0.009759123,1.0448054071901758
0.9927971,-0.3166978,0.007040762,1.04210995131166
0.9915304,-0.3188245,0.003671803,1.0415349624768633
0.991444,-0.3190021,0.00504413,1.0415128363048949
0.9877666,-0.3210203,0.009347389,1.038664653662946
0.9892869,-0.3263599,0.009561894,1.041772904550933
0.9915381,-0.3253261,0.0072288,1.0435694182191522
0.9886451,-0.3240031,0.005237,1.0403963517489958
0.9889217,-0.3247228,0.008694104,1.0409066303060486
0.9910644,-0.3231128,0.01090725,1.0424631861959262
0.9915209,-0.3232579,-0.000811173,1.0428854314117424
0.9903206,-0.3231132,-0.01122754,1.041759611644189
0.9878471,-0.3216733,-0.005714142,1.0389168669003772
0.9886324,-0.3216409,0.004611755,1.039648093908102
0.9886672,-0.3198352,0.01011798,1.0391630098469442
0.9871263,-0.3170213,0.01107019,1.0368429899999403
0.9903415,-0.3177533,0.008702003,1.0401053654026367
0.9924522,-0.3189883,0.007412793,1.0424825438930816
0.9897669,-0.3184811,0.007601812,1.0397723380329482
0.9880161,-0.3195057,0.006941874,1.0384160514005605
0.9892569,-0.3190234,0.008959881,1.0394640077524109
0.9913045,-0.3175255,0.008908715,1.0409545715704653
0.992719,-0.3200648,0.00702338,1.0430636687310437
0.9934328,-0.3212925,0.008336352,1.0441298259492247
0.9920692,-0.3188372,0.006459278,1.0420653434237035
0.9916055,-0.3172345,0.006371222,1.0411338953709428
0.9946649,-0.3168667,0.00797097,1.0439474628656562
0.9957166,-0.3150256,0.006982573,1.0443856722957379
0.9915583,-0.310176,0.01174433,1.0390067095847066
0.9871012,-0.3073675,0.01546664,1.0339645912943922
0.9890061,-0.3101431,0.01333027,1.0365806791625498
0.9928576,-0.3135131,0.01078026,1.041236232444414
0.9926264,-0.3146667,0.008996987,1.0413468431991946
0.9916286,-0.3162499,0.009712487,1.0408821316516559
0.9904173,-0.3174906,0.00995707,1.0401085772507765
0.9931989,-0.317384,0.009382089,1.042719848286784
0.9977708,-0.3218143,0.00855115,1.0484198277328851
0.9947622,-0.3265919,0.006012986,1.0470197035849356
0.9934287,-0.3225363,0.004133259,1.0444842414471083
0.9962364,-0.3189172,0.003763565,1.0460446020903265
0.995595,-0.3207376,0.00442811,1.0459931262856998
0.9949432,-0.3185265,0.004187546,1.0446954761891105
0.9946285,-0.3139171,0.003939229,1.0429982340396242
0.995908,-0.3131965,0.004450118,1.0440041166712246
0.9980561,-0.3131506,0.004140848,1.046038442720787
0.9958865,-0.3144974,0.00618287,1.0443834369475833
0.9928455,-0.3187135,0.01128585,1.042807677552636
0.9901197,-0.3205525,0.01544376,1.0408311271802346
0.9885939,-0.3214016,0.01309278,1.0396096904549796
0.9924354,-0.3189821,0.005460259,1.0424525973500747
0.9962093,-0.312894,0.00200211,1.0441932929716329
0.9952031,-0.3148173,0.00586472,1.0438263924473161
0.9946138,-0.3170273,0.01126892,1.0439779253670531
0.9957748,-0.3138591,0.01012953,1.044115699693224
0.9957098,-0.3156459,0.007439022,1.0445696142676018
0.9959285,-0.3158369,0.008721182,1.0448457223577732
0.9959876,-0.3143363,0.006123016,1.0444309934966438
0.9951522,-0.316228,0.002467558,1.0441906617047116
0.9943203,-0.3158813,-0.001793014,1.043291459555279
0.9926283,-0.3167315,-0.006801674,1.0419577956051493
0.9935667,-0.3174582,-0.0006289669,1.0430507618018843
0.9952427,-0.3166437,0.005867361,1.0444164354212762
0.9931973,-0.3178693,0.002371239,1.0428266353446172
0.9926034,-0.3165031,0.001738078,1.0418439148530378
0.9935247,-0.3161993,0.003778509,1.0426349332152858
0.993808,-0.3184899,0.003025052,1.0435992086072186
0.9946042,-0.3191715,0.005118361,1.0445736731744757
0.9931034,-0.3212313,0.008300749,1.043797304856269
0.989866,-0.3208243,0.007099181,1.04058316716991
0.9884987,-0.3168606,0.007379029,1.0380678059756177
0.9905022,-0.316597,0.01010539,1.039918452341765
0.9925326,-0.3208621,0.008773439,1.0431444878400387
0.990689,-0.3252885,0.004175893,1.0427342619457738
0.9898973,-0.3255145,-0.0004403846,1.0420444079769997
0.9924292,-0.3230697,-0.00206846,1.0436924961872158
0.9932573,-0.3203919,-0.005048733,1.0436649478131406
0.9912895,-0.3163541,-0.009331873,1.040587273250422
0.9902229,-0.3127815,-0.002272441,1.0384502021834068
0.9939204,-0.3095907,0.005782441,1.041036790745922
0.9983132,-0.3049976,0.002504974,1.0438673556514453
0.997376,-0.3007101,0.002276583,1.0417248352843307
0.9956407,-0.2971778,0.006516197,1.039065690479997
0.9958076,-0.2953246,0.007086422,1.0387009256565058
0.9948055,-0.2977386,0.005947622,1.0384226648950152
0.9937979,-0.3039746,0.002524101,1.039250304101677
0.9925346,-0.315479,-0.00330166,1.0414714746918976
0.9900613,-0.3296841,-0.01247113,1.0435844540016763
0.9889136,-0.330422,-0.01844048,1.0428177490106267
0.9890694,-0.3167652,-0.009827946,1.038602454488713
0.9896886,-0.3059813,0.0005425489,1.0359094435707008
0.9906091,-0.2945811,0.005613542,1.0334969401666392
0.9904067,-0.282042,0.01733159,1.0299288835549851
0.9900035,-0.286153,0.02079353,1.030738977778133
0.9916829,-0.2974782,0.008037164,1.0353708754030186
0.9969196,-0.3014993,0.001707631,1.0415149700164095
1.003548,-0.3056651,-0.0009671654,1.0490665741843657
1.003509,-0.306803,-0.007090234,1.0493848985516108
0.9978884,-0.3067696,-0.005124659,1.0439899944293463
0.9964084,-0.3125495,-0.0001544785,1.0442781781711312
0.9975561,-0.3098826,0.002114568,1.0445811935066591
0.9977608,-0.2987732,0.003576228,1.0415396432501203
0.9975875,-0.2897325,0.007701672,1.038838321137652
0.9966218,-0.2858472,0.01579338,1.0369248115629717
0.9970363,-0.2913192,0.01356292,1.038812886233732
0.9961407,-0.295261,0.005499556,1.0389925877664803
0.9952997,-0.2985569,0.004260283,1.0391226421211983
0.9992211,-0.3047351,1.62634e-05,1.0446560621188765
1.000517,-0.3035501,-0.004472324,1.0455605827406518
0.9974103,-0.3046162,-0.002908724,1.0428934732386803
0.9940341,-0.3072186,-0.002382634,1.040429111998289
0.9919541,-0.3120577,-0.004563858,1.0398912315410416
0.9939637,-0.3229833,-0.008245477,1.0451555084711257
0.9973821,-0.3214003,-0.01062529,1.0479418414340007
1.000987,-0.3171723,-0.009117793,1.0500744622194567
1.002502,-0.3172689,-0.004736256,1.051519018863714
0.9994565,-0.3108371,-0.000451468,1.046677219562944
0.9978078,-0.3045119,0.002976019,1.043243384676624
0.9971457,-0.298388,0.007466078,1.0408605516077511
0.9966482,-0.2972443,0.007986193,1.0400603769610508
0.9976403,-0.2998704,0.004814184,1.0417444990725104
0.9961364,-0.2976221,0.004571409,1.0396574145330832
0.9954962,-0.2963081,0.004977369,1.0386702790309408
0.997074,-0.2929849,0.007237451,1.0392541045389176
0.9969525,-0.2913655,0.01035952,1.0387085546490558
0.9956005,-0.3006038,0.005584416,1.040006820110691
0.9937469,-0.3141882,0.0003624528,1.042231863670883
0.9941876,-0.3224169,0.002992303,1.0451653435110704
0.9940145,-0.3219145,0.003020868,1.0448458724443397
0.9886091,-0.3240494,-0.002261017,1.0403658387514676
0.9845668,-0.3302747,-0.006205966,1.0385045378506168
0.985694,-0.3339027,-0.007975811,1.0407436227353966
0.9870164,-0.3409214,-0.006892248,1.044258721739691
0.986662,-0.3399187,-0.006341076,1.0435932321065176
0.9902279,-0.3250815,-0.007031154,1.0422469538008887
0.9950452,-0.3151445,-0.004016091,1.0437658429505203
0.993155,-0.3143846,-0.001256746,1.0417274644323575
0.9922088,-0.3151505,0.0008985855,1.0410566497091265
0.9948095,-0.3111085,0.00731877,1.0423473530722918
0.9942653,-0.308058,0.0118015,1.0409622920885944
0.993439,-0.3075616,0.009815578,1.040005543296301
0.9924533,-0.3013556,0.008109539,1.037229248987437
0.9900269,-0.3054258,0.008188653,1.0361009777368249
0.9877531,-0.3147977,0.005793243,1.0367195089074757
0.9848209,-0.3131383,0.00513802,1.033418695037602
0.9831322,-0.3190234,0.006054606,1.033615746144676
0.984806,-0.3279967,0.00377436,1.037997561962599
0.9881974,-0.3295994,-4.162017e-05,1.0417148686561781
0.9889467,-0.3342454,-0.004873131,1.043915375050963
0.9891063,-0.3393717,-0.004955779,1.0457193615908988
0.9930216,-0.3408839,-0.002887387,1.0499057426023812
0.9949994,-0.3394265,-0.004972531,1.0513129319889278
0.9928027,-0.3381241,-0.003039271,1.048806152392477
0.9915241,-0.3355401,-0.001981645,1.0467622110611972
0.9949859,-0.3317813,-0.003599505,1.0488511470484003
0.9985261,-0.3305808,-0.002130573,1.0518282070049074
0.9939172,-0.3257106,-0.002555879,1.045927974540151
0.9886947,-0.3235671,-1.805072e-05,1.0402946113175482
0.9888089,-0.3268679,0.00390041,1.0414417304716515
0.9896645,-0.3260476,0.005102811,1.0420023506240816
0.9902576,-0.3245344,0.008761112,1.0421177708035674
0.9876409,-0.3244519,0.01062926,1.0396232798156109
0.9852556,-0.3293983,0.009038087,1.0389001513094844
0.9879976,-0.335263,0.005591728,1.0433464449533463
0.9898244,-0.3300338,0.002330253,1.043398333359242
0.9887902,-0.3259793,0.002490774,1.0411410891899564
0.9885279,-0.3321207,0.003965108,1.042836176265645
0.9888485,-0.3362011,0.004581089,1.044448908262097
0.9870684,-0.3355997,0.003759749,1.0425666984088802
0.9862457,-0.3369675,0.003266907,1.0422275900714233
0.9906481,-0.336994,0.003054644,1.0464023819351602
0.9946476,-0.3305787,0.004175501,1.0481524506902853
0.9930406,-0.3240038,0.00656135,1.0445818048274738
0.9904649,-0.3239462,0.005543969,1.0421096843512794
0.9908081,-0.3260274,0.005050653,1.043082003330561
0.9897556,-0.3240922,0.006063923,1.0414838803334163
0.9864968,-0.3209332,0.005114716,1.0374007015576192
0.9854791,-0.3193769,0.004664937,1.0359500096180483
0.9864908,-0.3205789,0.004760273,1.0372837556854366
0.9881995,-0.3246482,0.007445478,1.0401875507359903
0.9892344,-0.3251126,0.01080459,1.0413451108960892
0.9891986,-0.3254189,0.008199816,1.0413830072080128
0.9896514,-0.3289839,0.005871807,1.0429164770481936
0.9902863,-0.3303288,0.009096152,1.0439668634867378
0.9897041,-0.3321915,0.01068385,1.044020853661402
0.9884377,-0.3307655,0.008459183,1.0423466124800174
0.990102,-0.3265761,0.005173416,1.0425836579039205
0.9927846,-0.3279686,0.001645806,1.0455560115366893
0.9932374,-0.3281348,0.00205335,1.0460388118879829
0.9929429,-0.3272185,0.003905583,1.045477308687869
0.9910108,-0.328278,0.00244385,1.0439707004525858
0.9895386,-0.3274952,0.003415999,1.0423298019159617
0.9894505,-0.3279766,0.004726432,1.0424026483356903
0.9892107,-0.3288591,0.001565681,1.0424435562678172
0.9914923,-0.3291551,-0.0009456072,1.0447013712005344
0.9934504,-0.3293554,-0.002051621,1.0466245200252322
0.9906424,-0.3275595,-0.00242391,1.0433951629453235
0.9878307,-0.3258273,-0.001865188,1.040180945900306
0.9920387,-0.324857,0.0003006141,1.0438740072995052
1.000189,-0.3264966,0.003096554,1.0521348079876622
1.002477,-0.3276461,-0.002064677,1.0546641006810293
0.9927109,-0.3213658,-0.007496622,1.0434592027146345
0.9788586,-0.3157352,-0.000746777,1.0285200207039666
0.9800094,-0.3184927,0.004836313,1.0304753339915924
0.9908948,-0.3228334,0.002482473,1.0421612502366395
0.9939684,-0.3239788,0.001506133,1.0454366128487245
0.9903179,-0.3239137,-0.0009254842,1.0419455286285864
0.9836226,-0.3230448,-0.007673834,1.0353406443128075
0.9825608,-0.3216441,-0.009964867,1.0339148665803088
0.9880212,-0.3215596,-0.005524324,1.039046190579253
0.9894794,-0.3248248,0.002595869,1.0414352463092773
0.9892641,-0.3295268,0.01108615,1.042762808211375
0.9881513,-0.3283906,0.008056226,1.0413204505037885
0.9865292,-0.3268318,-0.004653185,1.0392692336803415
0.9844949,-0.3314468,-0.01149674,1.0388548331633625
0.9825422,-0.3330955,-0.01258796,1.0375452971499854
0.9876339,-0.3333618,-0.0128554,1.0424567479937046
0.9914637,-0.3342571,-0.01733046,1.0464360573689686
0.9909857,-0.3284185,-0.02092535,1.044197892652232
0.9920443,-0.3228795,-0.01382784,1.0433572129629458
0.9917238,-0.3246253,-0.01279871,1.0435810883032492
0.9925582,-0.3268568,-0.01579023,1.045110749852346
0.9934371,-0.3244548,-0.008337995,1.0451113390735314
0.9923988,-0.3236592,-0.005939358,1.0438610692805494
0.9904721,-0.325751,-0.00639992,1.0426838705261612
0.9878956,-0.3248997,-0.006097322,1.0399686095719531
0.9887509,-0.3247867,-0.01381781,1.040819712832581
0.9894468,-0.3253103,-0.01760488,1.0417013454518258
0.9884687,-0.3246904,-0.01456186,1.0405317268101486
0.9890179,-0.3256038,-0.008671199,1.0412729857184175
0.9889555,-0.3271947,-0.002181939,1.0416785077681787
0.9887743,-0.330976,-0.0001198418,1.042698299259449
0.988962,-0.3318966,0.001742168,1.0431702764577317
0.9890481,-0.3253492,-0.003775429,1.0411928255219511
0.989601,-0.3204827,-0.01365997,1.0402912548804257
0.9896475,-0.3235137,-0.00974245,1.0412291792280615
0.9887576,-0.3268953,-0.004596174,1.0414044620296612
0.9883489,-0.3251852,-0.00692699,1.0404936067178452
0.9885183,-0.3279208,-0.006743321,1.041511379143617
0.9878803,-0.3323085,-0.00822582,1.0423070998582964
0.9883238,-0.3284989,-0.007692522,1.0415155475759208
0.9890737,-0.326498,-0.003660873,1.041576271824014
0.9880609,-0.3278402,-0.005968007,1.0410471439624636
0.9886754,-0.3249011,-0.006280406,1.0407109180007168
0.9914091,-0.3217184,-0.004461125,1.0423121577040324
0.9924835,-0.3221183,-0.006563745,1.0434686290040371
0.9904315,-0.3244993,-0.006183774,1.0422536116289658
0.9895782,-0.3255988,-0.007121962,1.041791876921398
0.9906736,-0.3258899,-0.007987074,1.0429296246679598
0.9891782,-0.3265915,-0.005131419,1.0417110207194908
0.9888045,-0.3264397,-0.003566638,1.0413020396901962
0.9909629,-0.32615,-0.001843994,1.0432567718401267
0.991835,-0.325488,-0.002118683,1.0438791089904302
0.9911247,-0.3247526,-0.005846114,1.0429892613089318
0.9895529,-0.3249149,-0.009667223,1.0415748121671107
0.9904554,-0.3251257,-0.01017935,1.0425028725888827
0.9916688,-0.3250019,-0.008588034,1.0436028929746386
0.9913709,-0.3248886,-0.01042449,1.0433012670214343
0.991388,-0.3252935,-0.01067906,1.04344624682287
0.9878975,-0.325863,-0.0125608,1.040329726082981
0.9852065,-0.3271223,-0.01822074,1.0382547096766224
0.9878755,-0.3293117,-0.01687695,1.041455246613335
0.9898622,-0.3308609,-0.01561622,1.0438103163241579
0.9890864,-0.3299667,-0.01658877,1.0428063660449924
0.9892389,-0.3272659,-0.01418399,1.042064180436282
0.9908095,-0.3266031,-0.01347661,1.043338233382134
0.989108,-0.3269142,-0.01233553,1.0418059776781956
0.9862905,-0.3277037,-0.01188506,1.0393747736188057
0.9860039,-0.3295412,-0.01317447,1.03969931228814
0.9869103,-0.326676,-0.01219887,1.0396431895854303
0.9917124,-0.3234855,-0.0123977,1.0432114148097211
0.9954219,-0.3258081,-0.01263405,1.0474613578765675
0.9911951,-0.3280983,-0.01076897,1.0441418445028245
0.9869262,-0.3295156,-0.008317727,1.0405157564747622
0.9888416,-0.3298893,-0.006025047,1.0424351113313493
0.989968,-0.3294546,-0.006716983,1.0433705441240817
0.9879837,-0.3306513,-0.007963898,1.041875951027153
0.9890495,-0.3291103,-0.008995983,1.0424075166298814
0.9893877,-0.327174,-0.01439786,1.0421795169546701
0.9881564,-0.3306245,-0.01954356,1.0421840440146277
0.9894255,-0.3320979,-0.01922223,1.0438492847920302
0.9887748,-0.3264402,-0.01523145,1.0413792807426996
0.9886026,-0.3217714,-0.00980946,1.0396961864363126
0.9895579,-0.3243661,-0.007664654,1.0413918336546333
0.9893316,-0.3280775,-0.008643941,1.0423466690505714
0.9909588,-0.3295765,-0.008276009,1.0443603329189874
0.9913264,-0.3326879,-0.008388002,1.0456957629831547
0.9914682,-0.3319897,-0.009964758,1.045622134864851
0.9918614,-0.3289338,-0.0124963,1.045056285137834
0.9894347,-0.3307589,-0.01490155,1.0433621287384849
0.9882721,-0.3292245,-0.01348476,1.0417544594533386
0.987981,-0.3263409,-0.01041438,1.0405351020915123
0.9876664,-0.3283075,-0.008120491,1.0408346048336838
0.9894416,-0.327919,-0.005868831,1.042381884699109
0.991529,-0.3273661,-0.005317618,1.0441870514095661
0.9913554,-0.3278266,-0.005891719,1.04416977600843
0.9895994,-0.3255439,-0.00733367,1.0417963265548784
0.9905293,-0.3238397,-0.009548394,1.042166789569961
0.9925661,-0.3242418,-0.01034848,1.0442352698385362
0.9931378,-0.3265135,-0.00939691,1.045476952107811
0.9932849,-0.3278386,-0.006457787,1.0460089594410305
0.9911232,-0.327615,-0.005795318,1.0438823552076935
0.9881241,-0.327876,-0.008035721,1.0411323072447611
0.9870567,-0.3258373,-0.006762353,1.0394693860351427
0.9888068,-0.3215765,-0.006162867,1.0398020552048115
0.9900682,-0.3180359,-0.006511192,1.0399155109725553
0.988223,-0.3179576,-0.002979489,1.038118784379447
0.990246,-0.319602,-0.003204825,1.040549301966649
0.993973,-0.3209559,-0.008529284,1.0445418915291826
0.9945343,-0.3248769,-0.01252701,1.0463270999117056
0.9946571,-0.3254928,-0.01208766,1.0466300306013225
0.9922161,-0.3237588,-0.01066933,1.0437559026320755
0.9911696,-0.3259265,-0.01246448,1.0434560952086487
0.9934754,-0.3249763,-0.008544308,1.0453114230534595
0.9957609,-0.3242773,-0.003062095,1.0472367992435565
0.998135,-0.326281,-0.005934174,1.0501276034878153
0.9957125,-0.326174,-0.0068745,1.0477977475078386
0.9912835,-0.3280316,-0.007343502,1.0441750978607152
0.9899321,-0.326614,-0.01103468,1.0424797512513673
0.990625,-0.3232458,-0.01034033,1.0420809278876324
0.9926258,-0.3244376,-0.01068925,1.0443562587474462
0.9915981,-0.3227215,-0.01360499,1.0428811314041309
0.9912552,-0.3214699,-0.01265222,1.042156344702645
0.9934574,-0.3238637,-0.01128199,1.0449749207951404
0.9937814,-0.3244635,-0.01051059,1.0454609061654856
0.9939525,-0.3245396,-0.007988024,1.0456248527803051
0.9901841,-0.3245104,-0.007594751,1.0420313007984559
0.9856044,-0.3257867,-0.006274511,1.0380714699309193
0.9878053,-0.3270372,0.0003008893,1.0405348295113916
0.9901207,-0.3250077,0.003194683,1.0421032634183862
0.99021,-0.3236621,-0.002730607,1.0417679469493186
0.9904022,-0.3235906,-0.01056013,1.0419783637479316
0.9892247,-0.3237829,-0.01112336,1.0409248784423348
0.9885278,-0.3255989,-0.008283542,1.0408028017459001
0.9891682,-0.3266907,-0.00974659,1.041765586576154
0.990012,-0.3256224,-0.007039048,1.0422107539852516
0.9913605,-0.324829,-0.002113582,1.043222884828607
0.9921035,-0.3267473,-0.002888171,1.044529317109513
0.9908342,-0.3283091,-0.003683408,1.0438164802909295
0.9879725,-0.3259105,-0.004626843,1.0403502883368885
0.9851995,-0.3242827,-0.005122561,1.0372095087062878
0.9857452,-0.3260326,-0.004600894,1.038273578500098
0.9878574,-0.3265679,-0.004996853,1.0404488476542582
0.9875916,-0.3244578,-0.004055516,1.0395318559724018
0.9882595,-0.323101,-0.00506867,1.0397484248397875
0.98948,-0.3244811,-0.006667877,1.04134677953163
0.9886627,-0.3252484,-0.005631031,1.0408036148015498
0.9888519,-0.3230661,-0.004950939,1.0403000994423686
0.9890516,-0.3215095,-0.005465947,1.04001024159833
0.9888752,-0.3222272,-0.007034489,1.040074042378893
0.9902969,-0.3225275,-0.00679489,1.0415172149014016
0.9922536,-0.3219955,-0.003820489,1.0431984014890978
0.9937027,-0.3222358,-0.003710025,1.0446505305959648
0.9927853,-0.3223606,-0.008932,1.0438480679449715
0.9906571,-0.3218819,-0.01280282,1.0417165447126067
0.9891974,-0.3214163,-0.01260584,1.0401821192822704
0.9883025,-0.3211121,-0.01268277,1.0392380213057704
0.9887133,-0.323317,-0.01190438,1.0403026417101295
0.987329,-0.3261312,-0.01068805,1.0398530416685055
0.9855489,-0.3251496,-0.009526613,1.0378437517404158
0.9884904,-0.324699,-0.009021194,1.0404922361240114
0.9924767,-0.3272568,-0.01121138,1.0450993772032564
0.9935655,-0.3282725,-0.01303508,1.0464727184007743
0.992209,-0.3277423,-0.01602935,1.0450601202570657
0.9910135,-0.3274928,-0.01547836,1.0438385271977557
0.9916536,-0.3269052,-0.009364365,1.0441894289408666
0.9909766,-0.3261963,-0.007315665,1.0433082798653723
0.9898909,-0.3256558,-0.005743462,1.0420982109821488
0.9912497,-0.32394,-0.002517836,1.0428419970677307
0.9917703,-0.3213623,-0.0007228259,1.0425366076549358
0.9897838,-0.3224684,-0.000964236,1.0409893224678453
0.9885883,-0.3266278,-0.003258721,1.0411547271622434
0.9905787,-0.327889,-0.00274551,1.0434389752351836
0.9924205,-0.3254046,-0.00332518,1.044412590571103
0.9907347,-0.3224217,-0.004106789,1.0418866848803043
0.9895749,-0.3234143,-0.00192603,1.0410854920447508
0.990746,-0.3258801,-0.003282799,1.0429699194422073
0.9908955,-0.3263522,-0.005197576,1.0432673028334425
0.9901043,-0.3277325,-0.007456396,1.0429624702145561
0.9893549,-0.3243774,-0.009681688,1.0412192616674452
0.9891613,-0.3183637,-0.008740459,1.0391688594828612
0.9892086,-0.3195216,-0.009885992,1.0395794534417964
0.9884982,-0.3219371,-0.01019922,1.0396519666928248
0.9892707,-0.3232501,-0.009146056,1.0407837409226064
0.9909984,-0.3248773,-0.01077658,1.042947373329233
0.991635,-0.3258715,-0.01253939,1.0438819109644644
0.9910271,-0.328599,-0.01335207,1.0441696670123561
0.9887523,-0.3280052,-0.01231587,1.0418110205964357
0.9884543,-0.3246818,-0.01225052,1.0404855836002729
0.9893769,-0.3232182,-0.01169911,1.0409003430874841
0.9885622,-0.3214948,-0.007915653,1.0395560529660226
0.9889709,-0.3216694,-0.007792029,1.0399977690644855
0.9888558,-0.3210886,-0.006949069,1.0397028286022727
0.987719,-0.3190696,-0.003340774,1.0379814031937562
0.987505,-0.3229564,-0.004259257,1.0389827248785957
0.9874023,-0.3268953,-0.004385312,1.0401168540931915
0.9886115,-0.3257459,-0.003767231,1.0409021478162428
0.9897238,-0.326237,-0.004807457,1.042116544393307
0.9914359,-0.3279095,-0.00487001,1.0442669682588164
0.9939636,-0.327366,-0.007219479,1.046510514499492
0.9927438,-0.3258315,-0.009237127,1.044888387985006
0.9898154,-0.323658,-0.009844748,1.0414345616044935
0.9883997,-0.3229607,-0.009845885,1.0398723585883092
0.9891127,-0.3242207,-0.006855529,1.0409178612588266
0.9920061,-0.3266376,-0.003927913,1.0444058850233973
0.9928422,-0.3357164,-0.003896744,1.0480726692093452
0.9887414,-0.3444744,-0.01228787,1.0471022682042366
0.9852925,-0.3364907,-0.02080176,1.041374099429133
0.9901582,-0.3228984,-0.01291589,1.041558187507684
0.9952515,-0.31997,-0.004087802,1.0454296051276915
0.9910555,-0.3187025,-0.007061526,1.041062991723339
0.9886303,-0.3145597,-0.007031649,1.0374907802143782
0.991175,-0.3128031,-0.004017291,1.0393699046160556
0.9900704,-0.3123739,-0.005098336,1.0381921033158261
0.9889399,-0.3123918,-0.004207892,1.0371154559036972
0.9891171,-0.3159779,-0.003631603,1.038367882468044
0.9886546,-0.3298276,-0.005770715,1.042236760517749
0.9900358,-0.3458372,-0.005530162,1.0487158036747735
0.9909544,-0.3420904,-0.005147414,1.0483524982191854
0.9919054,-0.3272495,-0.003980907,1.0445019891890839
0.992628,-0.3223346,-0.002445306,1.0436550772465938
0.9878202,-0.3202216,-0.005525883,1.0384416960126024
0.9827267,-0.318385,-0.008068395,1.033046888633699
0.9846551,-0.3241527,-0.007499028,1.0366662309028132
0.9877549,-0.3298626,-0.009156129,1.0414187016042273
0.9874974,-0.3295124,-0.01202823,1.041092798494665
0.9884608,-0.3306668,-0.01010017,1.0423518116225965
0.9894169,-0.3352671,-0.005474134,1.0446912445747165
0.9880096,-0.3280404,-0.003430178,1.0410500659648563
0.9863562,-0.3155943,-0.002166892,1.0356172125316716
0.9843086,-0.3191655,-0.003128374,1.0347655885020983
0.9861561,-0.3275623,-0.006452986,1.039154731008244
0.9912742,-0.3327277,-0.009701649,1.0456703036455848
0.9959776,-0.3339215,-0.01433583,1.050561975271235
1.000951,-0.3299341,-0.01600523,1.054047239041573
0.9959202,-0.3319383,-0.01408917,1.0498755090420098
0.9848776,-0.3294881,-0.01191187,1.038599146769468
0.9833957,-0.3220149,-0.00848565,1.0348104680840944
0.9840053,-0.3229438,-0.006505825,1.0356647402250694
0.9847191,-0.3236706,-0.008275111,1.0365822884225024
0.9898519,-0.3236363,-0.009826185,1.0414623337034106
0.9931468,-0.3228833,-0.004479865,1.0443247871038723
0.9958144,-0.3213255,0.001463024,1.0463739946294701
0.9957586,-0.3228567,0.000240688,1.0467911425588026
0.9919943,-0.3219809,0.0005975282,1.04294043369564
0.9911947,-0.3215343,0.0005481093,1.042042004819568
0.9899429,-0.3196253,-0.003595764,1.0402692955092174
0.9885351,-0.3149146,-0.002658022,1.0374873080217042
0.9884916,-0.3148357,0.0006251836,1.0374186966310102
0.98748,-0.3156991,0.0006295314,1.0367174487055737
0.9913839,-0.3175861,-0.003517798,1.0410164950639296
0.9964821,-0.3240863,-0.009047286,1.0478980670141853
0.9958534,-0.3290515,-0.007545739,1.048835459984485
0.9935782,-0.3236496,-0.004823055,1.0449736671107712
0.9910998,-0.3155455,-0.005126107,1.0401317479546837
0.9885911,-0.3191287,-0.001066331,1.0388246373785623
0.9869623,-0.3235508,-0.0007803518,1.0386434955030823
0.9878068,-0.3222546,-0.006514132,1.0390633932841218
0.9916689,-0.3239995,-0.00832287,1.043289103457185
0.9930067,-0.3265037,-0.008795411,1.0453441211453953
0.9888429,-0.3295843,-0.008327681,1.0423557175732945
0.984656,-0.3325146,-0.007444746,1.0393117057900216
0.9874373,-0.3297977,-0.005799707,1.041072802909511
0.9907714,-0.3261917,0.002546392,1.0430893903779617
0.9882134,-0.3267447,0.006930616,1.0408534269318566
0.9886335,-0.3243187,-0.000682236,1.040470702104533
0.9906589,-0.3186504,-0.009790853,1.040691594264044
0.9898374,-0.3209581,-0.0112377,1.0406336849706819
0.9909912,-0.3250469,-0.009325744,1.042979393458089
0.9920595,-0.3245904,-0.01252413,1.0438859291822393
0.9932514,-0.3260015,-0.01525677,1.0454941848882005
0.9928692,-0.3266215,-0.01476865,1.0453176386121648
0.9877924,-0.3278465,-0.01622889,1.0409037082894086
0.9856017,-0.328238,-0.01627674,1.0389493866170372
0.9884974,-0.3240564,-0.01163541,1.0403244892597636
0.9915856,-0.3231791,-0.005447085,1.0429364331248416
0.990612,-0.3238261,-0.005258028,1.0422106910042992
0.9891817,-0.3243661,-0.01080627,1.0410622353708798
0.991109,-0.3256822,-0.01372871,1.0433381152608698
0.9901823,-0.3246309,-0.01279434,1.042117989291105
0.989741,-0.3252232,-0.0117659,1.041871303617702
0.9908605,-0.3266425,-0.01334753,1.0433973403376111
0.9888127,-0.3289787,-0.01562572,1.0422196044310903
0.9887705,-0.3316724,-0.01800817,1.0430714149945626
0.989037,-0.3295318,-0.01998889,1.042681615021418
0.9889704,-0.328233,-0.01854566,1.042181987884072
0.991046,-0.3286725,-0.01604608,1.0442486595900502
0.9915397,-0.3274481,-0.01128827,1.0442703959747652
0.9902117,-0.3274158,-0.007751501,1.0429671148575506
0.9880511,-0.3269732,-0.01032587,1.040799247367477
0.9885841,-0.3252963,-0.009285239,1.0407701096927156
0.9897182,-0.3256302,-0.004464137,1.0419198966726928
0.9882217,-0.3286604,-0.002914385,1.0414452844576032
0.9892405,-0.3326778,-0.006662336,1.0437028658454794
0.990069,-0.3352581,-0.0137953,1.045382670929024
0.9898674,-0.332126,-0.01617667,1.0442254709166257
0.9899419,-0.3260598,-0.01795592,1.042411806156615
0.9885472,-0.3260316,-0.01934144,1.041103386858228
0.9907941,-0.3287705,-0.01495562,1.04402426256991
0.9934275,-0.3290274,-0.0144535,1.0465974065366586
0.9922984,-0.3275316,-0.01420916,1.0450526129669384
0.9920997,-0.3245768,-0.01189781,1.0439125785817154
0.9923147,-0.3245629,-0.01641499,1.0441738321702954
0.9911593,-0.3255975,-0.01943317,1.04345011288465
0.9886491,-0.3245893,-0.01707617,1.0407097828824177
0.9868212,-0.3251147,-0.01306021,1.039079505144228
0.98754,-0.3249593,-0.008951021,1.0396701010577503
0.9886869,-0.3238386,-0.009175113,1.0404121336182757
0.989096,-0.324137,-0.01047432,1.0409060492496247
0.9892101,-0.3260245,-0.01048325,1.041603809071771
0.9906265,-0.3288215,-0.01120761,1.043834302888352
0.9921091,-0.3279216,-0.01158039,1.0449627493274207
0.9907261,-0.3260539,-0.01178927,1.043066794512007
0.9887702,-0.3270516,-0.01271021,1.0415329120622372
0.9886706,-0.3283568,-0.01268081,1.0418486196913908
0.9890656,-0.3313968,-0.01116249,1.043167868243937
0.9889994,-0.3328348,-0.0110042,1.043561167210164
0.9897533,-0.3296328,-0.01136189,1.0432633752994025
0.9904631,-0.3248857,-0.01344706,1.0424723948137637
0.9893844,-0.3179955,-0.02105268,1.0394449693556616
0.9884852,-0.3155306,-0.02647517,1.03796121545168
0.9894013,-0.3222736,-0.01936537,1.0407450327788679
0.9917756,-0.3281122,-0.005228293,1.0446548672130398
0.9935579,-0.3284283,-0.000504741,1.0464333249934163
